TIME, IMU1_acc_x, IMU1_acc_y,IMU1_acc_z, IMU1_acc_raw_x, IMU1_acc_raw_y, IMU1_acc_raw_z,IMU2_acc_x, IMU2_acc_y,IMU2_acc_z, IMU2_acc_raw_x, IMU2_acc_raw_y, IMU2_acc_raw_z2.14576721191e-06, 0.0, 0.0, 0.0, 0.0, 0.0, 0.0, 0.0, 0.0, 0.0, 0.0, 0.0, 0.0
0.0101370811462, 0.0, 0.0, 0.0, 0.0, 0.0, 0.0, 0.0, 0.0, 0.0, 0.0, 0.0, 0.0
0.0203199386597, 0.0, 0.0, 0.0, 0.0, 0.0, 0.0, 0.0, 0.0, 0.0, 0.0, 0.0, 0.0
0.0309810638428, 0.0, 0.0, 0.0, 0.0, 0.0, 0.0, 0.0, 0.0, 0.0, 0.0, 0.0, 0.0
0.0412480831146, 0.0, 0.0, 0.0, 0.0, 0.0, 0.0, 0.0, 0.0, 0.0, 0.0, 0.0, 0.0
0.0524799823761, 0.0, 0.0, 0.0, 0.0, 0.0, 0.0, 0.0, 0.0, 0.0, 0.0, 0.0, 0.0
0.0625791549683, 0.0142315435489, -0.0222856779292, -0.995409952759, 0.36909288605, 0.03529413335, -9.88774118885, 0.029269296443, 0.0533205283649, -0.989339722421, 0.1950150419, 0.4043870194, -10.0827562307
0.0728070735931, 0.0142315435489, -0.0222856779292, -0.995409952759, 0.36909288605, 0.03529413335, -9.88774118885, 0.029269296443, 0.0533205283649, -0.989339722421, 0.1950150419, 0.4043870194, -10.0827562307
0.0831890106201, 0.0146153382059, -0.0277438820954, -0.99462563856, 0.37268211995, -0.01974078645, -9.8799645154, 0.028055231298, 0.0543409576994, -0.986937029823, 0.18364913455, 0.41455651545, -10.0588280047
0.0933520793915, 0.0146153382059, -0.0277438820954, -0.99462563856, 0.37268211995, -0.01974078645, -9.8799645154, 0.028055231298, 0.0543409576994, -0.986937029823, 0.18364913455, 0.41455651545, -10.0588280047
0.103543996811, 0.0110332547403, -0.0217517231738, -0.996797585572, 0.33918260355, 0.0406779842, -9.9014999188, 0.0292053982775, 0.0540408314246, -0.987057164453, 0.19441683625, 0.4115654872, -10.060024416
0.113775014877, 0.0110332547403, -0.0217517231738, -0.996797585572, 0.33918260355, 0.0406779842, -9.9014999188, 0.0292053982775, 0.0540408314246, -0.987057164453, 0.19441683625, 0.4115654872, -10.060024416
0.123940944672, 0.0141036119965, -0.0265573159723, -0.991548713627, 0.36789647475, -0.00777667345, -9.84945602725, 0.0288220092843, 0.0602834579418, -0.989760193626, 0.19082760235, 0.4737788748, -10.0869436703
0.134113073349, 0.0141036119965, -0.0265573159723, -0.991548713627, 0.36789647475, -0.00777667345, -9.84945602725, 0.0288220092843, 0.0602834579418, -0.989760193626, 0.19082760235, 0.4737788748, -10.0869436703
0.144274950027, 0.012440501816, -0.0262606744415, -0.995409952759, 0.35234312785, -0.0047856452, -9.88774118885, 0.0274801478083, 0.0494188867917, -0.987297433712, 0.1782652837, 0.36550365215, -10.0624172386
0.154484033585, 0.012440501816, -0.0262606744415, -0.995409952759, 0.35234312785, -0.0047856452, -9.88774118885, 0.0274801478083, 0.0494188867917, -0.987297433712, 0.1782652837, 0.36550365215, -10.0624172386
0.164692163467, 0.0114810151735, -0.0273879122585, -0.993841324361, 0.3433700431, -0.01615155255, -9.87218784195, 0.027927434967, 0.0559616395837, -0.990000462885, 0.18245272325, 0.430708068, -10.0893364929
0.174870967865, 0.0129522280254, -0.0250741083184, -0.993117342024, 0.35712877305, 0.0071784678, -9.86500937415, 0.0288859074499, 0.0569220436633, -0.989279655106, 0.191425808, 0.4402793584, -10.0821580251
0.185117006302, 0.0129522280254, -0.0250741083184, -0.993117342024, 0.35712877305, 0.0071784678, -9.86500937415, 0.0288859074499, 0.0569220436633, -0.989279655106, 0.191425808, 0.4402793584, -10.0821580251
0.195251941681, 0.0114810151735, -0.0259047046046, -0.995349620897, 0.3433700431, -0.0011964113, -9.8871429832, 0.0290776019464, 0.050799467656, -0.990961539925, 0.19322042495, 0.3792623821, -10.0989077833
0.205386161804, 0.0114810151735, -0.0259047046046, -0.995349620897, 0.3433700431, -0.0011964113, -9.8871429832, 0.0290776019464, 0.050799467656, -0.990961539925, 0.19322042495, 0.3792623821, -10.0989077833
0.215538024902, 0.012056707159, -0.0306509690969, -0.995530616482, 0.34875389395, -0.0490528633, -9.88893760015, 0.0283747221257, 0.0562617658586, -0.987477635657, 0.1866401628, 0.43369909625, -10.0642118556
0.22576212883, 0.012056707159, -0.0306509690969, -0.995530616482, 0.34875389395, -0.0490528633, -9.88893760015, 0.0283747221257, 0.0562617658586, -0.987477635657, 0.1866401628, 0.43369909625, -10.0642118556
0.235972166061, 0.0130161938016, -0.0272692556461, -0.995108293452, 0.3577269787, -0.01495514125, -9.8847501606, 0.0285025184567, 0.0546410839743, -0.989279655106, 0.1878365741, 0.4175475437, -10.0821580251
0.246129989624, 0.0130161938016, -0.0272692556461, -0.995108293452, 0.3577269787, -0.01495514125, -9.8847501606, 0.0285025184567, 0.0546410839743, -0.989279655106, 0.1878365741, 0.4175475437, -10.0821580251
0.256324052811, 0.0122486044875, -0.0221670213169, -0.996556258126, 0.3505485109, 0.03649054465, -9.8991070962, 0.0286942129533, 0.0548211597392, -0.990481001405, 0.18963119105, 0.41934216065, -10.0941221381
0.266772985458, 0.0122486044875, -0.0221670213169, -0.996556258126, 0.3505485109, 0.03649054465, -9.8991070962, 0.0286942129533, 0.0548211597392, -0.990481001405, 0.18963119105, 0.41934216065, -10.0941221381
0.276962041855, 0.0136558515633, -0.0198532173768, -0.994142983669, 0.3637090352, 0.059820565, -9.8751788702, 0.0283108239601, 0.0577623972329, -0.984894741114, 0.18604195715, 0.4486542375, -10.0384890127
0.28714799881, 0.0136558515633, -0.0198532173768, -0.994142983669, 0.3637090352, 0.059820565, -9.8751788702, 0.0283108239601, 0.0577623972329, -0.984894741114, 0.18604195715, 0.4486542375, -10.0384890127
0.297425985336, 0.0133360226824, -0.0205651570507, -0.993660328777, 0.36071800695, 0.0526420972, -9.870393225, 0.0279913331325, 0.0524201495403, -0.990240732145, 0.1830509289, 0.39541393465, -10.0917293155
0.307651042938, 0.0115449809496, -0.0121998658829, -0.99209170038, 0.34396824875, 0.13698909385, -9.8548398781, 0.0278635368015, 0.0485185079671, -0.989640058996, 0.1818545176, 0.3565305674, -10.085747259
0.317774057388, 0.0115449809496, -0.0121998658829, -0.99209170038, 0.34396824875, 0.13698909385, -9.8548398781, 0.0278635368015, 0.0485185079671, -0.989640058996, 0.1818545176, 0.3565305674, -10.085747259
0.327904939651, 0.0126963649207, -0.02566739138, -0.994806634144, 0.35473595045, 0.0011964113, -9.88175913235, 0.0286942129533, 0.0563217911136, -0.986396423988, 0.18963119105, 0.4342973019, -10.0534441539
0.338133096695, 0.0126963649207, -0.02566739138, -0.994806634144, 0.35473595045, 0.0011964113, -9.88175913235, 0.0286942129533, 0.0563217911136, -0.986396423988, 0.18963119105, 0.4342973019, -10.0534441539
0.348297119141, 0.0101377338739, -0.0241841837261, -0.9937809925, 0.33080772445, 0.01615155255, -9.8715896363, 0.0295248891051, 0.0589629023324, -0.991802482334, 0.1974078645, 0.4606183505, -10.1072826624
0.358685970306, 0.0107134258594, -0.02798119532, -0.993177673886, 0.33080772445, 0.01615155255, -9.8715896363, 0.0295248891051, 0.0589629023324, -0.991802482334, 0.1974078645, 0.4606183505, -10.1072826624
0.369091033936, 0.0107134258594, -0.02798119532, -0.993177673886, 0.3361915753, -0.02213360905, -9.8656075798, 0.029141500112, 0.0534405788748, -0.99018066483, 0.1938186306, 0.4055834307, -10.0911311099
0.379650115967, 0.0112891178449, -0.0252520932369, -0.992453691548, 0.3361915753, -0.02213360905, -9.8656075798, 0.0281191294636, 0.0566819426434, -0.991682347704, 0.1938186306, 0.4055834307, -10.0911311099
0.389888048172, 0.0112891178449, -0.0252520932369, -0.992453691548, 0.34157542615, 0.00538385085, -9.858429112, 0.0281191294636, 0.0566819426434, -0.991682347704, 0.1842473402, 0.4378865358, -10.1060862511
0.400102138519, 0.0112891178449, -0.0252520932369, -0.992453691548, 0.34157542615, 0.00538385085, -9.858429112, 0.0281191294636, 0.0566819426434, -0.991682347704, 0.1842473402, 0.4378865358, -10.1060862511
0.41032910347, 0.0125684333684, -0.0231162742153, -0.994504974837, 0.35353953915, 0.02691925425, -9.8787681041, 0.0276079441394, 0.0551813112691, -0.99138201113, 0.179461695, 0.42293139455, -10.1030952228
0.420516967773, 0.0125684333684, -0.0231162742153, -0.994504974837, 0.35353953915, 0.02691925425, -9.8787681041, 0.0276079441394, 0.0551813112691, -0.99138201113, 0.179461695, 0.42293139455, -10.1030952228
0.430649995804, 0.0134639542348, -0.0240061988077, -0.994565306699, 0.36191441825, 0.0179461695, -9.87936630975, 0.0288859074499, 0.0471979523576, -0.989760193626, 0.191425808, 0.3433700431, -10.0869436703
0.440866947174, 0.0134639542348, -0.0240061988077, -0.994565306699, 0.36191441825, 0.0179461695, -9.87936630975, 0.0288859074499, 0.0471979523576, -0.989760193626, 0.191425808, 0.3433700431, -10.0869436703
0.451061010361, 0.0129522280254, -0.0248367950938, -0.992152032241, 0.35712877305, 0.0095712904, -9.85543808375, 0.0274162496428, 0.0550012355041, -0.989579991681, 0.17766707805, 0.4211367776, -10.0851490533
0.461250066757, 0.0129522280254, -0.0248367950938, -0.992152032241, 0.35712877305, 0.0095712904, -9.85543808375, 0.0274162496428, 0.0550012355041, -0.989579991681, 0.17766707805, 0.4211367776, -10.0851490533
0.471471071243, 0.0110972205164, -0.0216330665615, -0.994323979253, 0.3397808092, 0.0418743955, -9.87697348715, 0.0275440459738, 0.0492988362817, -0.993123963263, 0.17886348935, 0.36430724085, -10.1204431867
0.481716156006, 0.0110972205164, -0.0216330665615, -0.994323979253, 0.3397808092, 0.0418743955, -9.87697348715, 0.0275440459738, 0.0492988362817, -0.993123963263, 0.17886348935, 0.36430724085, -10.1204431867
0.491991996765, 0.0145513724297, -0.0287524633, -0.99251402341, 0.3720839143, -0.0299102825, -9.85902731765, 0.0293970927741, 0.0494789120466, -0.99042093409, 0.1962114532, 0.3661018578, -10.0935239324
0.502143144608, 0.0145513724297, -0.0287524633, -0.99251402341, 0.3720839143, -0.0299102825, -9.85902731765, 0.0293970927741, 0.0494789120466, -0.99042093409, 0.1962114532, 0.3661018578, -10.0935239324
0.512339115143, 0.0133360226824, -0.0242435120323, -0.99462563856, 0.36071800695, 0.0155533469, -9.8799645154, 0.027927434967, 0.0528403263251, -0.991201809185, 0.18245272325, 0.3996013742, -10.1013006059
0.52259016037, 0.0133360226824, -0.0242435120323, -0.99462563856, 0.36071800695, 0.0155533469, -9.8799645154, 0.027927434967, 0.0528403263251, -0.991201809185, 0.18245272325, 0.3996013742, -10.1013006059
0.532740116119, 0.0114170493973, -0.0279218670138, -0.994082651807, 0.34277183745, -0.0215354034, -9.87458066455, 0.0285664166222, 0.055361387034, -0.99138201113, 0.18843477975, 0.4247260115, -10.1030952228
0.542937040329, 0.0114170493973, -0.0279218670138, -0.994082651807, 0.34277183745, -0.0215354034, -9.87458066455, 0.0285664166222, 0.055361387034, -0.99138201113, 0.18843477975, 0.4247260115, -10.1030952228
0.553138017654, 0.0123765360399, -0.0230569459092, -0.994444642976, 0.3517449222, 0.0275174599, -9.87816989845, 0.0297804817672, 0.0583026245277, -0.989039385846, 0.1998006871, 0.45403808835, -10.0797652025
0.563490152359, 0.0123765360399, -0.0230569459092, -0.994444642976, 0.3517449222, 0.0275174599, -9.87816989845, 0.0297804817672, 0.0583026245277, -0.989039385846, 0.1998006871, 0.45403808835, -10.0797652025
0.573683977127, 0.0128242964731, -0.0113099412906, -0.994323979253, 0.35593236175, 0.1459621786, -9.87697348715, 0.0289498056154, 0.0554814375439, -0.990601136035, 0.19202401365, 0.4259224228, -10.0953185494
0.58388710022, 0.0128242964731, -0.0113099412906, -0.994323979253, 0.35593236175, 0.1459621786, -9.87697348715, 0.0289498056154, 0.0554814375439, -0.990601136035, 0.19202401365, 0.4259224228, -10.0953185494
0.594069957733, 0.0131441253539, -0.0225229911538, -0.990643735705, 0.35892339, 0.03290131075, -9.8404829425, 0.0299082780983, 0.0568620184083, -0.990000462885, 0.2009970984, 0.43968115275, -10.0893364929
0.604273080826, 0.0131441253539, -0.0225229911538, -0.990643735705, 0.35892339, 0.03290131075, -9.8404829425, 0.0299082780983, 0.0568620184083, -0.990000462885, 0.2009970984, 0.43968115275, -10.0893364929
0.614452123642, 0.0144234408774, -0.0251927649307, -0.996435594403, 0.370887503, 0.0059820565, -9.8979106849, 0.029269296443, 0.0601634074318, -0.989339722421, 0.1950150419, 0.4725824635, -10.0827562307
0.624602079391, 0.0144234408774, -0.0251927649307, -0.996435594403, 0.370887503, 0.0059820565, -9.8979106849, 0.029269296443, 0.0601634074318, -0.989339722421, 0.1950150419, 0.4725824635, -10.0827562307
0.634771108627, 0.0115449809496, -0.0257860479923, -0.992574355271, 0.34396824875, -0.0, -9.8596255233, 0.0286303147878, 0.0550012355041, -0.99042093409, 0.1890329854, 0.4211367776, -10.0935239324
0.644982099533, 0.0115449809496, -0.0257860479923, -0.992574355271, 0.34396824875, -0.0, -9.8596255233, 0.0286303147878, 0.0550012355041, -0.99042093409, 0.1890329854, 0.4211367776, -10.0935239324
0.655130147934, 0.0153829275199, -0.0248961234, -0.995530616482, 0.37986058775, 0.00897308475, -9.88893760015, 0.0277996386359, 0.0532605031099, -0.989519924366, 0.18125631195, 0.40378881375, -10.0845508477
0.665338993073, 0.0153829275199, -0.0248961234, -0.995530616482, 0.37986058775, 0.00897308475, -9.88893760015, 0.0277996386359, 0.0532605031099, -0.989519924366, 0.18125631195, 0.40378881375, -10.0845508477
0.675523996353, 0.0143594751012, -0.0232349308276, -0.995108293452, 0.37028929735, 0.02572284295, -9.8847501606, 0.0275440459738, 0.0522400737754, -0.989880328256, 0.17886348935, 0.3936193177, -10.0881400816
0.685722112656, 0.0143594751012, -0.0232349308276, -0.995108293452, 0.37028929735, 0.02572284295, -9.8847501606, 0.0275440459738, 0.0522400737754, -0.989880328256, 0.17886348935, 0.3936193177, -10.0881400816
0.695953130722, 0.0126963649207, -0.0234129157461, -0.99166937735, 0.35473595045, 0.023928226, -9.85065243855, 0.0279913331325, 0.0572821951931, -0.988678981956, 0.1830509289, 0.4438685923, -10.0761759686
0.706223964691, 0.0126963649207, -0.0234129157461, -0.99166937735, 0.35473595045, 0.023928226, -9.85065243855, 0.0279913331325, 0.0572821951931, -0.988678981956, 0.1830509289, 0.4438685923, -10.0761759686
0.716371059418, 0.0119287756067, -0.0232349308276, -0.996857917433, 0.34755748265, 0.02572284295, -9.90209812445, 0.0288220092843, 0.0555414627989, -0.99018066483, 0.19082760235, 0.42652062845, -10.0911311099
0.726516008377, 0.0119287756067, -0.0232349308276, -0.996857917433, 0.34755748265, 0.02572284295, -9.90209812445, 0.0288220092843, 0.0555414627989, -0.99018066483, 0.19082760235, 0.42652062845, -10.0911311099
0.736747026443, 0.0127603306969, -0.0258453762984, -0.993720660639, 0.3553341561, -0.00059820565, -9.87099143065, 0.0288859074499, 0.0720484079165, -0.988739049271, 0.191425808, 0.5910271822, -10.0767741743
0.747161149979, 0.0127603306969, -0.0258453762984, -0.993720660639, 0.3553341561, -0.00059820565, -9.87099143065, 0.0288859074499, 0.0720484079165, -0.988739049271, 0.191425808, 0.5910271822, -10.0767741743
0.757367134094, 0.0142315435489, -0.0264979876661, -0.995530616482, 0.36909288605, -0.0071784678, -9.88893760015, 0.0262660826633, 0.0561417153486, -0.986516558618, 0.16689937635, 0.43250268495, -10.0546405652
0.767516136169, 0.0142315435489, -0.0264979876661, -0.995530616482, 0.36909288605, -0.0071784678, -9.88893760015, 0.0262660826633, 0.0561417153486, -0.986516558618, 0.16689937635, 0.43250268495, -10.0546405652
0.77769613266, 0.01020169965, -0.0230569459092, -0.994565306699, 0.3314059301, 0.0275174599, -9.87936630975, 0.0290776019464, 0.0537407051497, -0.988558847326, 0.19322042495, 0.40857445895, -10.0749795573
0.78786110878, 0.01020169965, -0.0230569459092, -0.994565306699, 0.3314059301, 0.0275174599, -9.87936630975, 0.0290776019464, 0.0537407051497, -0.988558847326, 0.19322042495, 0.40857445895, -10.0749795573
0.798001050949, 0.0125684333684, -0.0292270897492, -0.993599996916, 0.35353953915, -0.0346959277, -9.86979501935, 0.0273523514773, 0.0538007304047, -0.9900605302, 0.1770688724, 0.4091726646, -10.0899346985
0.808262109756, 0.0125684333684, -0.0292270897492, -0.993599996916, 0.35353953915, -0.0346959277, -9.86979501935, 0.0273523514773, 0.0538007304047, -0.9900605302, 0.1770688724, 0.4091726646, -10.0899346985
0.818536996841, 0.0136558515633, -0.0254300781554, -0.99335866947, 0.3637090352, 0.0035892339, -9.86740219675, 0.0298443799327, 0.0586627760575, -0.988739049271, 0.20039889275, 0.45762732225, -10.0767741743
0.828667163849, 0.0136558515633, -0.0254300781554, -0.99335866947, 0.3637090352, 0.0035892339, -9.86740219675, 0.0298443799327, 0.0586627760575, -0.988739049271, 0.20039889275, 0.45762732225, -10.0767741743
0.838808059692, 0.0136558515633, -0.0254300781554, -0.99335866947, 0.3637090352, 0.0035892339, -9.86740219675, 0.0298443799327, 0.0586627760575, -0.988739049271, 0.20039889275, 0.45762732225, -10.0767741743
0.849081039429, 0.0146793039821, -0.0305323124846, -0.992574355271, 0.3732803256, -0.047856452, -9.8596255233, 0.0297165836017, 0.0538607556597, -0.989279655106, 0.19920248145, 0.40977087025, -10.0821580251
0.859251022339, 0.0146793039821, -0.0305323124846, -0.992574355271, 0.3732803256, -0.047856452, -9.8596255233, 0.0297165836017, 0.0538607556597, -0.989279655106, 0.19920248145, 0.40977087025, -10.0821580251
0.869413137436, 0.0126323991446, -0.0238875421953, -0.993057010163, 0.3541377448, 0.0191425808, -9.8644111685, 0.0284386202912, 0.0526602505602, -0.987717904917, 0.18723836845, 0.39780675725, -10.0666046782
0.879646062851, 0.0126323991446, -0.0238875421953, -0.993057010163, 0.3541377448, 0.0191425808, -9.8644111685, 0.0284386202912, 0.0526602505602, -0.987717904917, 0.18723836845, 0.39780675725, -10.0666046782
0.889868021011, 0.0115449809496, -0.0388382753463, -0.995651280205, 0.34396824875, -0.131605243, -9.89013401145, 0.0264577771599, 0.0559016143287, -0.990601136035, 0.1686939933, 0.43010986235, -10.0953185494
0.900006055832, 0.0115449809496, -0.0388382753463, -0.995651280205, 0.34396824875, -0.131605243, -9.89013401145, 0.0264577771599, 0.0559016143287, -0.990601136035, 0.1686939933, 0.43010986235, -10.0953185494
0.910195112228, 0.0159586195055, -0.0197938890707, -0.993177673886, 0.3852444386, 0.06041877065, -9.8656075798, 0.0311862414088, 0.0542209071895, -0.985375279634, 0.2129612114, 0.41336010415, -10.0432746578
0.920392036438, 0.0159586195055, -0.0197938890707, -0.993177673886, 0.3852444386, 0.06041877065, -9.8656075798, 0.0311862414088, 0.0542209071895, -0.985375279634, 0.2129612114, 0.41336010415, -10.0432746578
0.930593967438, 0.0159586195055, -0.0197938890707, -0.993177673886, 0.3852444386, 0.06041877065, -9.8656075798, 0.0311862414088, 0.0542209071895, -0.985375279634, 0.2129612114, 0.41336010415, -10.0432746578
0.940824985504, 0.0159586195055, -0.0197938890707, -0.993177673886, 0.3852444386, 0.06041877065, -9.8656075798, 0.0311862414088, 0.0542209071895, -0.985375279634, 0.2129612114, 0.41336010415, -10.0432746578
0.951024055481, 0.0107134258594, -0.0250147800123, -0.991488381766, 0.3361915753, 0.00777667345, -9.8488578216, 0.029141500112, 0.0550012355041, -0.988618914641, 0.1938186306, 0.4211367776, -10.0755777629
0.961220979691, 0.0107134258594, -0.0250147800123, -0.991488381766, 0.3361915753, 0.00777667345, -9.8488578216, 0.029141500112, 0.0550012355041, -0.988618914641, 0.1938186306, 0.4211367776, -10.0755777629
0.971359014511, 0.0107773916356, -0.0244214969507, -0.994082651807, 0.33678978095, 0.01375872995, -9.87458066455, 0.0309945469122, 0.0537407051497, -0.989399789736, 0.21116659445, 0.40857445895, -10.0833544364
0.981528997421, 0.0107773916356, -0.0244214969507, -0.994082651807, 0.33678978095, 0.01375872995, -9.87458066455, 0.0309945469122, 0.0537407051497, -0.989399789736, 0.21116659445, 0.40857445895, -10.0833544364
0.991727113724, 0.0123125702637, -0.0251927649307, -0.994565306699, 0.35114671655, 0.0059820565, -9.87936630975, 0.0293331946085, 0.0541008566796, -0.99102160724, 0.19561324755, 0.41216369285, -10.0995059889
1.00189995766, 0.0123125702637, -0.0251927649307, -0.994565306699, 0.35114671655, 0.0059820565, -9.87936630975, 0.0293331946085, 0.0541008566796, -0.99102160724, 0.19561324755, 0.41216369285, -10.0995059889
1.01202607155, 0.0130161938016, -0.0254894064615, -0.99504796159, 0.3577269787, 0.00299102825, -9.88415195495, 0.0294609909396, 0.0492988362817, -0.987537702972, 0.19680965885, 0.36430724085, -10.0648100613
1.02218413353, 0.0130161938016, -0.0254894064615, -0.99504796159, 0.3577269787, 0.00299102825, -9.88415195495, 0.0294609909396, 0.0492988362817, -0.987537702972, 0.19680965885, 0.36430724085, -10.0648100613
1.03234100342, 0.0127603306969, -0.038363648897, -0.993117342024, 0.3553341561, -0.1268195978, -9.86500937415, 0.0263299808289, 0.0539808061696, -0.989880328256, 0.167497582, 0.41096728155, -10.0881400816
1.04252815247, 0.0127603306969, -0.038363648897, -0.993117342024, 0.3553341561, -0.1268195978, -9.86500937415, 0.0263299808289, 0.0539808061696, -0.989880328256, 0.167497582, 0.41096728155, -10.0881400816
1.05273509026, 0.0127603306969, -0.038363648897, -0.993117342024, 0.3553341561, -0.1268195978, -9.86500937415, 0.0263299808289, 0.0539808061696, -0.989880328256, 0.167497582, 0.41096728155, -10.0881400816
1.06293606758, 0.0137198173395, -0.0263200027477, -0.995530616482, 0.36430724085, -0.00538385085, -9.88893760015, 0.0293331946085, 0.0562017406036, -0.989399789736, 0.19561324755, 0.4331008906, -10.0833544364
1.07329702377, 0.0119287756067, -0.0212770967245, -0.994444642976, 0.34755748265, 0.0454636294, -9.87816989845, 0.0296526854362, 0.0569820689183, -0.989339722421, 0.1986042758, 0.44087756405, -10.0827562307
1.08343911171, 0.0119287756067, -0.0212770967245, -0.994444642976, 0.34755748265, 0.0454636294, -9.87816989845, 0.0296526854362, 0.0569820689183, -0.989339722421, 0.1986042758, 0.44087756405, -10.0827562307
1.09358811378, 0.014295509325, -0.023768885583, -0.996375262542, 0.3696910917, 0.0203389921, -9.89731247925, 0.0293970927741, 0.0547011092293, -0.987417568342, 0.1962114532, 0.41814574935, -10.0636136499
1.10381317139, 0.014295509325, -0.023768885583, -0.996375262542, 0.3696910917, 0.0203389921, -9.89731247925, 0.0293970927741, 0.0547011092293, -0.987417568342, 0.1962114532, 0.41814574935, -10.0636136499
1.11396098137, 0.012440501816, -0.0234129157461, -0.993057010163, 0.35234312785, 0.023928226, -9.8644111685, 0.0288859074499, 0.0458773967482, -0.99066120335, 0.191425808, 0.3302095188, -10.0959167551
1.12409615517, 0.0114170493973, -0.0221076930107, -0.994746302283, 0.34277183745, 0.0370887503, -9.8811609267, 0.028055231298, 0.0542809324445, -0.986997097138, 0.18364913455, 0.4139583098, -10.0594262104
1.13427805901, 0.0114170493973, -0.0221076930107, -0.994746302283, 0.34277183745, 0.0370887503, -9.8811609267, 0.028055231298, 0.0542809324445, -0.986997097138, 0.18364913455, 0.4139583098, -10.0594262104
1.14452815056, 0.0114170493973, -0.0221076930107, -0.994746302283, 0.34277183745, 0.0370887503, -9.8811609267, 0.028055231298, 0.0542809324445, -0.986997097138, 0.18364913455, 0.4139583098, -10.0594262104
1.15474915504, 0.0140396462203, -0.0271505990338, -0.995289289036, 0.3672982691, -0.01375872995, -9.88654477755, 0.0273523514773, 0.0506193918911, -0.992523290114, 0.1770688724, 0.37746776515, -10.1144611302
1.16495013237, 0.0140396462203, -0.0271505990338, -0.995289289036, 0.3672982691, -0.01375872995, -9.88654477755, 0.0273523514773, 0.0506193918911, -0.992523290114, 0.1770688724, 0.37746776515, -10.1144611302
1.17515802383, 0.0140396462203, -0.0271505990338, -0.995289289036, 0.3672982691, -0.01375872995, -9.88654477755, 0.0285664166222, 0.0475581038875, -0.988138376122, 0.1770688724, 0.37746776515, -10.1144611302
1.18553614616, 0.0130161938016, -0.0208024702753, -0.994082651807, 0.3577269787, 0.0502492746, -9.87458066455, 0.0285664166222, 0.0475581038875, -0.988138376122, 0.18843477975, 0.346959277, -10.0707921177
1.19566702843, 0.0141675777727, -0.0270319424215, -0.99504796159, 0.3684946804, -0.01256231865, -9.88415195495, 0.0295887872706, 0.0599233064119, -0.989760193626, 0.19800607015, 0.4701896409, -10.0869436703
1.20584917068, 0.0141675777727, -0.0270319424215, -0.99504796159, 0.3684946804, -0.01256231865, -9.88415195495, 0.0295887872706, 0.0599233064119, -0.989760193626, 0.19800607015, 0.4701896409, -10.0869436703
1.2160551548, 0.0137198173395, -0.0218110514799, -0.994746302283, 0.36430724085, 0.04007977855, -9.8811609267, 0.0294609909396, 0.0592030033523, -0.987958174177, 0.19680965885, 0.4630111731, -10.0689975008
1.22627210617, 0.0137198173395, -0.0218110514799, -0.994746302283, 0.36430724085, 0.04007977855, -9.8811609267, 0.0294609909396, 0.0592030033523, -0.987958174177, 0.19680965885, 0.4630111731, -10.0689975008
1.23650097847, 0.0123765360399, -0.0267946291969, -0.995228957174, 0.3517449222, -0.01016949605, -9.8859465719, 0.0284386202912, 0.0541008566796, -0.992162886224, 0.18723836845, 0.41216369285, -10.1108718963
1.24684906006, 0.0123765360399, -0.0267946291969, -0.995228957174, 0.3517449222, -0.01016949605, -9.8859465719, 0.0284386202912, 0.0541008566796, -0.992162886224, 0.18723836845, 0.41216369285, -10.1108718963
1.25771212578, 0.012056707159, -0.0254300781554, -0.993479333193, 0.34875389395, 0.0035892339, -9.86859860805, 0.0276079441394, 0.0518799222455, -0.991081674555, 0.179461695, 0.3900300838, -10.1001041946
1.26785516739, 0.012056707159, -0.0254300781554, -0.993479333193, 0.34875389395, 0.0035892339, -9.86859860805, 0.0276079441394, 0.0518799222455, -0.991081674555, 0.179461695, 0.3900300838, -10.1001041946
1.27798914909, 0.0106494600832, -0.024540153563, -0.994565306699, 0.33559336965, 0.01256231865, -9.87936630975, 0.0300360744293, 0.0496589878115, -0.991081674555, 0.2021935097, 0.36789647475, -10.1001041946
1.28819894791, 0.0106494600832, -0.024540153563, -0.994565306699, 0.33559336965, 0.01256231865, -9.87936630975, 0.0300360744293, 0.0496589878115, -0.991081674555, 0.2021935097, 0.36789647475, -10.1001041946
1.29837107658, 0.0122486044875, -0.0404994679186, -0.99420331553, 0.3505485109, -0.1483550012, -9.87577707585, 0.0302916670914, 0.0557215385638, -0.989760193626, 0.2045863323, 0.4283152454, -10.0869436703
1.30851697922, 0.0118648098305, -0.0242435120323, -0.996435594403, 0.346959277, 0.0155533469, -9.8979106849, 0.0270967588152, 0.0547611344843, -0.990961539925, 0.1746760498, 0.418743955, -10.0989077833
1.31869196892, 0.0118648098305, -0.0242435120323, -0.996435594403, 0.346959277, 0.0155533469, -9.8979106849, 0.0270967588152, 0.0547611344843, -0.990961539925, 0.1746760498, 0.418743955, -10.0989077833
1.32889604568, 0.0118648098305, -0.0242435120323, -0.996435594403, 0.346959277, 0.0155533469, -9.8979106849, 0.0270967588152, 0.0547611344843, -0.990961539925, 0.1746760498, 0.418743955, -10.0989077833
1.33907103539, 0.0141675777727, -0.0209804551938, -0.996556258126, 0.3684946804, 0.04845465765, -9.8991070962, 0.0272884533117, 0.0563217911136, -0.987777972232, 0.17647066675, 0.4342973019, -10.0672028838
1.34922003746, 0.0134639542348, -0.0270912707277, -0.994685970422, 0.36191441825, -0.0131605243, -9.88056272105, 0.0255632028426, 0.0534405788748, -0.988678981956, 0.1603191142, 0.4055834307, -10.0761759686
1.35952711105, 0.0134639542348, -0.0270912707277, -0.994685970422, 0.36191441825, -0.0131605243, -9.88056272105, 0.0255632028426, 0.0534405788748, -0.988678981956, 0.1603191142, 0.4055834307, -10.0761759686
1.36966896057, 0.0127603306969, -0.0238875421953, -0.996133935096, 0.3553341561, 0.0191425808, -9.89491965665, 0.0283108239601, 0.055301361779, -0.986276289358, 0.18604195715, 0.42412780585, -10.0522477426
1.3797981739, 0.0127603306969, -0.0238875421953, -0.996133935096, 0.3553341561, 0.0191425808, -9.89491965665, 0.0283108239601, 0.055301361779, -0.986276289358, 0.18604195715, 0.42412780585, -10.0522477426
1.39000701904, 0.0127603306969, -0.0238875421953, -0.996133935096, 0.3553341561, 0.0191425808, -9.89491965665, 0.0283108239601, 0.055301361779, -0.986276289358, 0.18604195715, 0.42412780585, -10.0522477426
1.40018796921, 0.0118648098305, -0.0184886663353, -0.992453691548, 0.346959277, 0.07357929495, -9.858429112, 0.0278635368015, 0.0594431043722, -0.988378645382, 0.1818545176, 0.4654039957, -10.0731849404
1.41031503677, 0.0123765360399, -0.0263793310538, -0.993479333193, 0.3517449222, -0.0059820565, -9.86859860805, 0.0299721762638, 0.0572821951931, -0.99138201113, 0.20159530405, 0.4438685923, -10.1030952228
1.42047095299, 0.0123765360399, -0.0263793310538, -0.993479333193, 0.3517449222, -0.0059820565, -9.86859860805, 0.0299721762638, 0.0572821951931, -0.99138201113, 0.20159530405, 0.4438685923, -10.1030952228
1.43093514442, 0.0123765360399, -0.0372364110801, -0.99462563856, 0.3517449222, -0.11545369045, -9.8799645154, 0.0259465918357, 0.0529603768351, -0.993364232523, 0.1639083481, 0.4007977855, -10.1228360093
1.44171595573, 0.0123765360399, -0.0372364110801, -0.99462563856, 0.3517449222, -0.11545369045, -9.8799645154, 0.0259465918357, 0.0529603768351, -0.993364232523, 0.1639083481, 0.4007977855, -10.1228360093
1.45184111595, 0.0112891178449, -0.0235909006646, -0.994323979253, 0.34157542615, 0.02213360905, -9.87697348715, 0.0311862414088, 0.0556615133089, -0.989339722421, 0.2129612114, 0.42771703975, -10.0827562307
1.46211004257, 0.0112891178449, -0.0235909006646, -0.994323979253, 0.34157542615, 0.02213360905, -9.87697348715, 0.0311862414088, 0.0556615133089, -0.989339722421, 0.2129612114, 0.42771703975, -10.0827562307
1.47252011299, 0.012440501816, -0.0230569459092, -0.995590948343, 0.35234312785, 0.0275174599, -9.8895358058, 0.0282469257946, 0.0542809324445, -0.989099453161, 0.1854437515, 0.4139583098, -10.0803634081
1.48273515701, 0.012440501816, -0.0230569459092, -0.995590948343, 0.35234312785, 0.0275174599, -9.8895358058, 0.0282469257946, 0.0542809324445, -0.989099453161, 0.1854437515, 0.4139583098, -10.0803634081
1.49293708801, 0.0118648098305, -0.039490886714, -0.992574355271, 0.346959277, -0.13818550515, -9.8596255233, 0.0259465918357, 0.0578824477429, -0.992042751594, 0.1639083481, 0.4498506488, -10.109675485
1.50318002701, 0.0118648098305, -0.039490886714, -0.992574355271, 0.346959277, -0.13818550515, -9.8596255233, 0.0259465918357, 0.0578824477429, -0.992042751594, 0.1639083481, 0.4498506488, -10.109675485
1.51343512535, 0.0148072355344, -0.0276252254831, -0.994142983669, 0.3744767369, -0.01854437515, -9.8751788702, 0.0322725102227, 0.0539207809146, -0.991081674555, 0.22313070745, 0.4103690759, -10.1001041946
1.5235619545, 0.00981790499299, -0.0395502150201, -0.994565306699, 0.3278166962, -0.1387837108, -9.87936630975, 0.0272884533117, 0.0545810587193, -0.989339722421, 0.17647066675, 0.41694933805, -10.0827562307
1.53370904922, 0.00981790499299, -0.0395502150201, -0.994565306699, 0.3278166962, -0.1387837108, -9.87936630975, 0.0272884533117, 0.0545810587193, -0.989339722421, 0.17647066675, 0.41694933805, -10.0827562307
1.54465794563, 0.0121846387114, -0.0232942591338, -0.994444642976, 0.34995030525, 0.0251246373, -9.87816989845, 0.0313140377398, 0.0497790383215, -0.986456491303, 0.2141576227, 0.36909288605, -10.0540423596
1.5548491478, 0.0121846387114, -0.0232942591338, -0.994444642976, 0.34995030525, 0.0251246373, -9.87816989845, 0.0313140377398, 0.0497790383215, -0.986456491303, 0.2141576227, 0.36909288605, -10.0540423596
1.56498503685, 0.0133360226824, -0.0390755885709, -0.993599996916, 0.36071800695, -0.1339980656, -9.86979501935, 0.0293970927741, 0.0559616395837, -0.989399789736, 0.1962114532, 0.430708068, -10.0833544364
1.57525610924, 0.0133360226824, -0.0390755885709, -0.993599996916, 0.36071800695, -0.1339980656, -9.86979501935, 0.0293970927741, 0.0559616395837, -0.989399789736, 0.1962114532, 0.430708068, -10.0833544364
1.58558797836, 0.012056707159, -0.0264979876661, -0.99589260765, 0.34875389395, -0.0071784678, -9.89252683405, 0.0259465918357, 0.0535006041298, -0.992883694003, 0.1639083481, 0.40618163635, -10.1180503641
1.59573316574, 0.012056707159, -0.0264979876661, -0.99589260765, 0.34875389395, -0.0071784678, -9.89252683405, 0.0259465918357, 0.0535006041298, -0.992883694003, 0.1639083481, 0.40618163635, -10.1180503641
1.60585308075, 0.0118648098305, -0.0204465004384, -0.992212364103, 0.346959277, 0.0538385085, -9.8560362894, 0.0293970927741, 0.0481583564372, -0.988739049271, 0.1962114532, 0.3529413335, -10.0767741743
1.61641716957, 0.0109692889641, -0.0205058287445, -0.992634687133, 0.346959277, 0.0538385085, -9.8560362894, 0.0264577771599, 0.050919518166, -0.991562213074, 0.1962114532, 0.3529413335, -10.0767741743
1.62662816048, 0.0109692889641, -0.0205058287445, -0.992634687133, 0.3385843979, 0.05324030285, -9.86022372895, 0.0264577771599, 0.050919518166, -0.991562213074, 0.1686939933, 0.3804587934, -10.1048898398
1.63679599762, 0.0109692889641, -0.0205058287445, -0.992634687133, 0.3385843979, 0.05324030285, -9.86022372895, 0.0264577771599, 0.050919518166, -0.991562213074, 0.1686939933, 0.3804587934, -10.1048898398
1.64698910713, 0.0113530836211, -0.0238875421953, -0.994565306699, 0.3421736318, 0.0191425808, -9.87936630975, 0.027927434967, 0.0540408314246, -0.988138376122, 0.18245272325, 0.4115654872, -10.0707921177
1.65749502182, 0.0146793039821, -0.0113099412906, -0.99335866947, 0.3732803256, 0.1459621786, -9.86740219675, 0.0284386202912, 0.0497190130665, -0.991321943815, 0.18723836845, 0.3684946804, -10.1024970172
1.66784214973, 0.0146793039821, -0.0113099412906, -0.99335866947, 0.3732803256, 0.1459621786, -9.86740219675, 0.0284386202912, 0.0497190130665, -0.991321943815, 0.18723836845, 0.3684946804, -10.1024970172
1.67798805237, 0.0119927413828, -0.0266759725846, -0.993479333193, 0.3481556883, -0.00897308475, -9.86859860805, 0.0296526854362, 0.0541008566796, -0.987597770287, 0.1986042758, 0.41216369285, -10.0654082669
1.6882109642, 0.0119927413828, -0.0266759725846, -0.993479333193, 0.3481556883, -0.00897308475, -9.86859860805, 0.0296526854362, 0.0541008566796, -0.987597770287, 0.1986042758, 0.41216369285, -10.0654082669
1.69844007492, 0.0119927413828, -0.0266759725846, -0.993479333193, 0.3481556883, -0.00897308475, -9.86859860805, 0.0296526854362, 0.0541008566796, -0.987597770287, 0.1986042758, 0.41216369285, -10.0654082669
1.70862197876, 0.0126323991446, -0.0105980016167, -0.994142983669, 0.3541377448, 0.1531406464, -9.8751788702, 0.0286942129533, 0.0544009829544, -0.988739049271, 0.18963119105, 0.4151547211, -10.0767741743
1.71882200241, 0.0123765360399, -0.0229382892969, -0.994565306699, 0.3517449222, 0.0287138712, -9.87936630975, 0.026713369822, 0.0506193918911, -0.991982684279, 0.1710868159, 0.37746776515, -10.1090772793
1.72912812233, 0.0123765360399, -0.0229382892969, -0.994565306699, 0.3517449222, 0.0287138712, -9.87936630975, 0.026713369822, 0.0506193918911, -0.991982684279, 0.1710868159, 0.37746776515, -10.1090772793
1.73929309845, 0.0105854943071, -0.0255487347677, -0.994806634144, 0.334995164, 0.0023928226, -9.88175913235, 0.0299721762638, 0.0722284836814, -0.989579991681, 0.20159530405, 0.59282179915, -10.0851490533
1.7494571209, 0.0105854943071, -0.0255487347677, -0.994806634144, 0.334995164, 0.0023928226, -9.88175913235, 0.0299721762638, 0.0722284836814, -0.989579991681, 0.20159530405, 0.59282179915, -10.0851490533
1.75970506668, 0.0105854943071, -0.0255487347677, -0.994806634144, 0.334995164, 0.0023928226, -9.88175913235, 0.0299721762638, 0.0722284836814, -0.989579991681, 0.20159530405, 0.59282179915, -10.0851490533
1.76987504959, 0.0126323991446, -0.0232349308276, -0.995409952759, 0.3541377448, 0.02572284295, -9.88774118885, 0.0260104900012, 0.0527803010701, -0.99114174187, 0.16450655375, 0.39900316855, -10.1007024002
1.7800359726, 0.0126323991446, -0.0232349308276, -0.995409952759, 0.3541377448, 0.02572284295, -9.88774118885, 0.0260104900012, 0.0527803010701, -0.99114174187, 0.16450655375, 0.39900316855, -10.1007024002
1.79021501541, 0.0123125702637, -0.039906184857, -0.993057010163, 0.35114671655, -0.1423729447, -9.8644111685, 0.0260743881668, 0.0571621446832, -0.990841405295, 0.1651047594, 0.442672181, -10.097711372
1.80042695999, 0.011672912502, -0.0245994818692, -0.994384311114, 0.34516466005, 0.011964113, -9.8775716928, 0.027927434967, 0.0539808061696, -0.991742415019, 0.1651047594, 0.442672181, -10.097711372
1.81068897247, 0.011672912502, -0.0245994818692, -0.994384311114, 0.34516466005, 0.011964113, -9.8775716928, 0.027927434967, 0.0539808061696, -0.991742415019, 0.18245272325, 0.41096728155, -10.1066844567
1.82082009315, 0.011672912502, -0.0245994818692, -0.994384311114, 0.34516466005, 0.011964113, -9.8775716928, 0.027927434967, 0.0539808061696, -0.991742415019, 0.18245272325, 0.41096728155, -10.1066844567
1.83111000061, 0.0118648098305, -0.0237095572769, -0.994504974837, 0.346959277, 0.02093719775, -9.8787681041, 0.0281830276291, 0.0500791645964, -0.991562213074, 0.18484554585, 0.3720839143, -10.1048898398
1.84153008461, 0.0137837831156, -0.024540153563, -0.99293634644, 0.3649054465, 0.01256231865, -9.8632147572, 0.0281191294636, 0.0568019931533, -0.990721270665, 0.1842473402, 0.4390829471, -10.0965149607
1.85169506073, 0.0137837831156, -0.024540153563, -0.99293634644, 0.3649054465, 0.01256231865, -9.8632147572, 0.0281191294636, 0.0568019931533, -0.990721270665, 0.1842473402, 0.4390829471, -10.0965149607
1.86190605164, 0.0137837831156, -0.024540153563, -0.99293634644, 0.3649054465, 0.01256231865, -9.8632147572, 0.0281191294636, 0.0568019931533, -0.990721270665, 0.1842473402, 0.4390829471, -10.0965149607
1.87209606171, 0.013911714668, -0.0238282138892, -0.994565306699, 0.3661018578, 0.01974078645, -9.87936630975, 0.0295248891051, 0.048698583732, -0.989099453161, 0.1974078645, 0.35832518435, -10.0803634081
1.88226103783, 0.013911714668, -0.0238282138892, -0.994565306699, 0.3661018578, 0.01974078645, -9.87936630975, 0.0295248891051, 0.048698583732, -0.989099453161, 0.1974078645, 0.35832518435, -10.0803634081
1.89250397682, 0.011672912502, -0.0257860479923, -0.992695018994, 0.34516466005, -0.0, -9.8608219346, 0.0293970927741, 0.0518198969906, -0.990360866775, 0.1962114532, 0.38943187815, -10.0929257268
1.9029340744, 0.0133999884586, -0.0252520932369, -0.994746302283, 0.34516466005, -0.0, -9.8608219346, 0.0293970927741, 0.0518198969906, -0.990360866775, 0.1962114532, 0.38943187815, -10.0929257268
1.91312909126, 0.0133999884586, -0.0252520932369, -0.994746302283, 0.3613162126, 0.00538385085, -9.8811609267, 0.0288220092843, 0.0557215385638, -0.990481001405, 0.19082760235, 0.4283152454, -10.0941221381
1.92375302315, 0.0112891178449, -0.0262606744415, -0.99462563856, 0.34157542615, -0.0047856452, -9.8799645154, 0.0283108239601, 0.0584827002926, -0.977746730634, 0.18604195715, 0.4558327053, -9.9673025403
1.93389010429, 0.0112891178449, -0.0262606744415, -0.99462563856, 0.34157542615, -0.0047856452, -9.8799645154, 0.0283108239601, 0.0584827002926, -0.977746730634, 0.18604195715, 0.4558327053, -9.9673025403
1.94402599335, 0.0137198173395, -0.0264979876661, -0.995108293452, 0.36430724085, -0.0071784678, -9.8847501606, 0.0304194634225, 0.0515797959707, -0.988498780012, 0.2057827436, 0.38703905555, -10.0743813517
1.95423007011, 0.0137198173395, -0.0264979876661, -0.995108293452, 0.36430724085, -0.0071784678, -9.8847501606, 0.0304194634225, 0.0515797959707, -0.988498780012, 0.2057827436, 0.38703905555, -10.0743813517
1.96447396278, 0.0148072355344, -0.0224636628476, -0.994866966006, 0.3744767369, 0.0334995164, -9.882357338, 0.0282469257946, 0.0535006041298, -0.990360866775, 0.1854437515, 0.40618163635, -10.0929257268
1.97466301918, 0.0148072355344, -0.0224636628476, -0.994866966006, 0.3744767369, 0.0334995164, -9.882357338, 0.0282469257946, 0.0535006041298, -0.990360866775, 0.1854437515, 0.40618163635, -10.0929257268
1.98488402367, 0.0118648098305, -0.0297017161985, -0.996133935096, 0.346959277, -0.0394815729, -9.89491965665, 0.0271606569807, 0.0564418416235, -0.988799116586, 0.1854437515, 0.40618163635, -10.0929257268
1.99503707886, 0.0118648098305, -0.0297017161985, -0.996133935096, 0.346959277, -0.0394815729, -9.89491965665, 0.0271606569807, 0.0564418416235, -0.988799116586, 0.17527425545, 0.4354937132, -10.0773723799
2.00517106056, 0.0131441253539, -0.0201498589076, -0.994866966006, 0.35892339, 0.05682953675, -9.882357338, 0.0303555652569, 0.0550612607591, -0.988498780012, 0.20518453795, 0.42173498325, -10.0743813517
2.01535916328, 0.0131441253539, -0.0201498589076, -0.994866966006, 0.35892339, 0.05682953675, -9.882357338, 0.0303555652569, 0.0550612607591, -0.988498780012, 0.20518453795, 0.42173498325, -10.0743813517
2.02550196648, 0.0130801595778, -0.0301170143416, -0.995349620897, 0.35832518435, -0.04366901245, -9.8871429832, 0.0263938789944, 0.057582321468, -0.993304165208, 0.16809578765, 0.44685962055, -10.1222378037
2.03567910194, 0.0130801595778, -0.0301170143416, -0.995349620897, 0.35832518435, -0.04366901245, -9.8871429832, 0.0263938789944, 0.057582321468, -0.993304165208, 0.16809578765, 0.44685962055, -10.1222378037
2.04585003853, 0.013911714668, -0.0254894064615, -0.993660328777, 0.3661018578, 0.00299102825, -9.870393225, 0.0300360744293, 0.0580024982528, -0.988739049271, 0.2021935097, 0.4510470601, -10.0767741743
2.05606794357, 0.013911714668, -0.0254894064615, -0.993660328777, 0.3661018578, 0.00299102825, -9.870393225, 0.0300360744293, 0.0580024982528, -0.988739049271, 0.2021935097, 0.4510470601, -10.0767741743
2.06627511978, 0.0134639542348, -0.0239468705015, -0.995651280205, 0.36191441825, 0.01854437515, -9.89013401145, 0.0275440459738, 0.0549412102492, -0.990120597515, 0.17886348935, 0.42053857195, -10.0905329042
2.07646012306, 0.0134639542348, -0.0239468705015, -0.995651280205, 0.36191441825, 0.01854437515, -9.89013401145, 0.0275440459738, 0.0549412102492, -0.990120597515, 0.17886348935, 0.42053857195, -10.0905329042
2.08664608002, 0.012440501816, -0.0294644029739, -0.993720660639, 0.35234312785, -0.0370887503, -9.87099143065, 0.0292053982775, 0.0578224224879, -0.992523290114, 0.19441683625, 0.44925244315, -10.1144611302
2.09686017036, 0.012440501816, -0.0294644029739, -0.993720660639, 0.35234312785, -0.0370887503, -9.87099143065, 0.0292053982775, 0.0578224224879, -0.992523290114, 0.19441683625, 0.44925244315, -10.1144611302
2.10700297356, 0.0131441253539, -0.0234722440523, -0.99293634644, 0.35892339, 0.02333002035, -9.8632147572, 0.028055231298, 0.0503192656162, -0.987297433712, 0.18364913455, 0.3744767369, -10.0624172386
2.11712908745, 0.0131441253539, -0.0234722440523, -0.99293634644, 0.35892339, 0.02333002035, -9.8632147572, 0.028055231298, 0.0503192656162, -0.987297433712, 0.18364913455, 0.3744767369, -10.0624172386
2.12724304199, 0.0113530836211, -0.0232942591338, -0.995228957174, 0.3421736318, 0.0251246373, -9.8859465719, 0.0298443799327, 0.0561417153486, -0.988198443437, 0.20039889275, 0.43250268495, -10.0713903234
2.13741207123, 0.0113530836211, -0.0232942591338, -0.995228957174, 0.3421736318, 0.0251246373, -9.8859465719, 0.0298443799327, 0.0561417153486, -0.988198443437, 0.20039889275, 0.43250268495, -10.0713903234
2.14760112762, 0.0138477488918, -0.0298797011169, -0.994927297867, 0.36550365215, -0.04127618985, -9.88295554365, 0.0297804817672, 0.0536206546398, -0.989820260941, 0.1998006871, 0.40737804765, -10.0875418759
2.15778017044, 0.0138477488918, -0.0298797011169, -0.994927297867, 0.36550365215, -0.04127618985, -9.88295554365, 0.0297804817672, 0.0536206546398, -0.989820260941, 0.1998006871, 0.40737804765, -10.0875418759
2.16796517372, 0.0114810151735, -0.023768885583, -0.994444642976, 0.3433700431, 0.0203389921, -9.87816989845, 0.0308028524156, 0.0571621446832, -0.990120597515, 0.2093719775, 0.442672181, -10.0905329042
2.17808103561, 0.0114810151735, -0.023768885583, -0.994444642976, 0.3433700431, 0.0203389921, -9.87816989845, 0.0308028524156, 0.0571621446832, -0.990120597515, 0.2093719775, 0.442672181, -10.0905329042
2.18821406364, 0.013911714668, -0.0210991118061, -0.994142983669, 0.3661018578, 0.04725824635, -9.8751788702, 0.0284386202912, 0.0500791645964, -0.987177299082, 0.18723836845, 0.3720839143, -10.0612208274
2.19840598106, 0.013911714668, -0.0210991118061, -0.994142983669, 0.3661018578, 0.04725824635, -9.8751788702, 0.0284386202912, 0.0500791645964, -0.987177299082, 0.18723836845, 0.3720839143, -10.0612208274
2.20861506462, 0.0133360226824, -0.0266759725846, -0.994263647392, 0.36071800695, -0.00897308475, -9.8763752815, 0.0281191294636, 0.0550612607591, -0.990481001405, 0.1842473402, 0.42173498325, -10.0941221381
2.21875810623, 0.0133360226824, -0.0266759725846, -0.994263647392, 0.36071800695, -0.00897308475, -9.8763752815, 0.0281191294636, 0.0550612607591, -0.990481001405, 0.1842473402, 0.42173498325, -10.0941221381
2.22892904282, 0.0133360226824, -0.0266759725846, -0.994263647392, 0.36071800695, -0.00897308475, -9.8763752815, 0.0281191294636, 0.0550612607591, -0.990481001405, 0.1842473402, 0.42173498325, -10.0941221381
2.2391409874, 0.0127603306969, -0.0223450062353, -0.994927297867, 0.3553341561, 0.0346959277, -9.88295554365, 0.0270967588152, 0.0557815638188, -0.989760193626, 0.1746760498, 0.42891345105, -10.0869436703
2.24932193756, 0.0127603306969, -0.0223450062353, -0.994927297867, 0.3553341561, 0.0346959277, -9.88295554365, 0.0270967588152, 0.0557815638188, -0.989760193626, 0.1746760498, 0.42891345105, -10.0869436703
2.25948405266, 0.0132080911301, -0.0235909006646, -0.99166937735, 0.35952159565, 0.02213360905, -9.85065243855, 0.0283747221257, 0.0545210334644, -0.987898106862, 0.1866401628, 0.4163511324, -10.0683992951
2.26979899406, 0.0132080911301, -0.0235909006646, -0.99166937735, 0.35952159565, 0.02213360905, -9.85065243855, 0.0283747221257, 0.0545210334644, -0.987898106862, 0.1866401628, 0.4163511324, -10.0683992951
2.28016114235, 0.0127603306969, -0.0247774667877, -0.993177673886, 0.3553341561, 0.01016949605, -9.8656075798, 0.0251159156839, 0.0570420941732, -0.992162886224, 0.15613167465, 0.4414757697, -10.1108718963
2.29038095474, 0.0127603306969, -0.0247774667877, -0.993177673886, 0.3553341561, 0.01016949605, -9.8656075798, 0.0251159156839, 0.0570420941732, -0.992162886224, 0.15613167465, 0.4414757697, -10.1108718963
2.30060005188, 0.0122486044875, -0.0254300781554, -0.994565306699, 0.3505485109, 0.0035892339, -9.87936630975, 0.0299082780983, 0.0571621446832, -0.987838039547, 0.2009970984, 0.442672181, -10.0678010895
2.31099414825, 0.0135918857871, -0.0250741083184, -0.993117342024, 0.36311082955, 0.0071784678, -9.86500937415, 0.0302277689259, 0.0562017406036, -0.989459857051, 0.2009970984, 0.442672181, -10.0678010895
2.32150697708, 0.0135918857871, -0.0250741083184, -0.993117342024, 0.36311082955, 0.0071784678, -9.86500937415, 0.0302277689259, 0.0562017406036, -0.989459857051, 0.20398812665, 0.4331008906, -10.0839526421
2.33162903786, 0.0086665210219, -0.0262013461354, -0.994565306699, 0.3170489945, -0.00418743955, -9.87936630975, 0.0298443799327, 0.0561417153486, -0.989820260941, 0.20039889275, 0.43250268495, -10.0875418759
2.34184503555, 0.0086665210219, -0.0262013461354, -0.994565306699, 0.3170489945, -0.00418743955, -9.87936630975, 0.0298443799327, 0.0561417153486, -0.989820260941, 0.20039889275, 0.43250268495, -10.0875418759
2.35215997696, 0.0086665210219, -0.0262013461354, -0.994565306699, 0.3170489945, -0.00418743955, -9.87936630975, 0.0298443799327, 0.0561417153486, -0.989820260941, 0.20039889275, 0.43250268495, -10.0875418759
2.36236596107, 0.0107134258594, -0.0256080630738, -0.992634687133, 0.3361915753, 0.00179461695, -9.86022372895, 0.0293331946085, 0.0542209071895, -0.987597770287, 0.19561324755, 0.41336010415, -10.0654082669
2.37253212929, 0.0137198173395, -0.02798119532, -0.993720660639, 0.36430724085, -0.02213360905, -9.87099143065, 0.0285025184567, 0.0526602505602, -0.989579991681, 0.1878365741, 0.39780675725, -10.0851490533
2.38276600838, 0.0137198173395, -0.02798119532, -0.993720660639, 0.36430724085, -0.02213360905, -9.87099143065, 0.0285025184567, 0.0526602505602, -0.989579991681, 0.1878365741, 0.39780675725, -10.0851490533
2.39290904999, 0.013911714668, -0.0227603043784, -0.994022319946, 0.3661018578, 0.03050848815, -9.8739824589, 0.0290137037809, 0.0560816900937, -0.988258510752, 0.1926222193, 0.4319044793, -10.0719885291
2.40308403969, 0.013911714668, -0.0227603043784, -0.994022319946, 0.3661018578, 0.03050848815, -9.8739824589, 0.0290137037809, 0.0560816900937, -0.988258510752, 0.1926222193, 0.4319044793, -10.0719885291
2.41326713562, 0.013911714668, -0.0227603043784, -0.994022319946, 0.3661018578, 0.03050848815, -9.8739824589, 0.0290137037809, 0.0560816900937, -0.988258510752, 0.1926222193, 0.4319044793, -10.0719885291
2.42346405983, 0.0132720569063, -0.0235315723584, -0.992574355271, 0.3601198013, 0.0227318147, -9.8596255233, 0.027927434967, 0.059683205392, -0.99054106872, 0.18245272325, 0.4677968183, -10.0947203437
2.43360996246, 0.0132720569063, -0.0235315723584, -0.992574355271, 0.3601198013, 0.0227318147, -9.8596255233, 0.027927434967, 0.059683205392, -0.99054106872, 0.18245272325, 0.4677968183, -10.0947203437
2.44374799728, 0.0148712013106, -0.0238875421953, -0.992634687133, 0.37507494255, 0.0191425808, -9.86022372895, 0.0281191294636, 0.0563818163685, -0.990841405295, 0.1842473402, 0.43489550755, -10.097711372
2.45398616791, 0.0148712013106, -0.0238875421953, -0.992634687133, 0.37507494255, 0.0191425808, -9.86022372895, 0.0281191294636, 0.0563818163685, -0.990841405295, 0.1842473402, 0.43489550755, -10.097711372
2.46414804459, 0.0121846387114, -0.0244214969507, -0.994866966006, 0.34995030525, 0.01375872995, -9.882357338, 0.0299082780983, 0.0524201495403, -0.99102160724, 0.2009970984, 0.39541393465, -10.0995059889
2.47437214851, 0.0121846387114, -0.0244214969507, -0.994866966006, 0.34995030525, 0.01375872995, -9.882357338, 0.0299082780983, 0.0524201495403, -0.99102160724, 0.2009970984, 0.39541393465, -10.0995059889
2.48457407951, 0.00962600766448, -0.02720992734, -0.995409952759, 0.32602207925, -0.0143569356, -9.88774118885, 0.0294609909396, 0.057462270958, -0.988078308807, 0.19680965885, 0.44566320925, -10.0701939121
2.49479603767, 0.00962600766448, -0.02720992734, -0.995409952759, 0.32602207925, -0.0143569356, -9.88774118885, 0.0294609909396, 0.057462270958, -0.988078308807, 0.19680965885, 0.44566320925, -10.0701939121
2.50493001938, 0.0112251520688, -0.0258453762984, -0.991367718043, 0.3409772205, -0.00059820565, -9.8476614103, 0.0251798138494, 0.053200477855, -0.989039385846, 0.1567298803, 0.4031906081, -10.0797652025
2.51505017281, 0.0112251520688, -0.0258453762984, -0.991367718043, 0.3409772205, -0.00059820565, -9.8476614103, 0.0251798138494, 0.053200477855, -0.989039385846, 0.1567298803, 0.4031906081, -10.0797652025
2.52518701553, 0.0107134258594, -0.0267353008908, -0.992815682717, 0.3361915753, -0.0095712904, -9.8620183459, 0.0289498056154, 0.0551212860141, -0.989579991681, 0.19202401365, 0.4223331889, -10.0851490533
2.53541707993, 0.0107134258594, -0.0267353008908, -0.992815682717, 0.3361915753, -0.0095712904, -9.8620183459, 0.0289498056154, 0.0551212860141, -0.989579991681, 0.19202401365, 0.4223331889, -10.0851490533
2.54556012154, 0.012440501816, -0.0297610445046, -0.992272695964, 0.35234312785, -0.04007977855, -9.85663449505, 0.0281191294636, 0.0560816900937, -0.988859183901, 0.1842473402, 0.4319044793, -10.0779705855
2.55572915077, 0.012440501816, -0.0297610445046, -0.992272695964, 0.35234312785, -0.04007977855, -9.85663449505, 0.0281191294636, 0.0560816900937, -0.988859183901, 0.1842473402, 0.4319044793, -10.0779705855
2.56597805023, 0.0119927413828, -0.0265573159723, -0.993419001331, 0.35234312785, -0.04007977855, -9.85663449505, 0.027927434967, 0.0540408314246, -0.989099453161, 0.1842473402, 0.4319044793, -10.0779705855
2.57628703117, 0.0119927413828, -0.0265573159723, -0.993419001331, 0.3481556883, -0.00777667345, -9.8680004024, 0.027927434967, 0.0540408314246, -0.989099453161, 0.18245272325, 0.4115654872, -10.0803634081
2.5864109993, 0.0114810151735, -0.0256080630738, -0.996616589987, 0.3433700431, 0.00179461695, -9.89970530185, 0.0260743881668, 0.057642346723, -0.994385376877, 0.1651047594, 0.4474578262, -10.1330055054
2.59656095505, 0.0114810151735, -0.0256080630738, -0.996616589987, 0.3433700431, 0.00179461695, -9.89970530185, 0.0260743881668, 0.057642346723, -0.994385376877, 0.1651047594, 0.4474578262, -10.1330055054
2.60679602623, 0.0118648098305, -0.0224636628476, -0.993177673886, 0.346959277, 0.0334995164, -9.8656075798, 0.0281830276291, 0.0560816900937, -0.991742415019, 0.18484554585, 0.4319044793, -10.1066844567
2.61700510979, 0.0118648098305, -0.0224636628476, -0.993177673886, 0.346959277, 0.0334995164, -9.8656075798, 0.0281830276291, 0.0560816900937, -0.991742415019, 0.18484554585, 0.4319044793, -10.1066844567
2.6271879673, 0.015766722177, -0.0282185085446, -0.995349620897, 0.38344982165, -0.02452643165, -9.8871429832, 0.0278635368015, 0.0543409576994, -0.978707807673, 0.1818545176, 0.41455651545, -9.9768738307
2.63742208481, 0.015766722177, -0.0282185085446, -0.995349620897, 0.38344982165, -0.02452643165, -9.8871429832, 0.0278635368015, 0.0543409576994, -0.978707807673, 0.1818545176, 0.41455651545, -9.9768738307
2.64774012566, 0.0134639542348, -0.0259640329107, -0.994866966006, 0.36191441825, -0.00179461695, -9.882357338, 0.0276079441394, 0.0548211597392, -0.992102818909, 0.179461695, 0.41934216065, -10.1102736906
2.65788507462, 0.0134639542348, -0.0259640329107, -0.994866966006, 0.36191441825, -0.00179461695, -9.882357338, 0.0276079441394, 0.0548211597392, -0.992102818909, 0.179461695, 0.41934216065, -10.1102736906
2.66803002357, 0.0116089467258, -0.022226349623, -0.994504974837, 0.3445664544, 0.035892339, -9.8787681041, 0.0286303147878, 0.0538007304047, -0.99066120335, 0.1890329854, 0.4091726646, -10.0959167551
2.67827796936, 0.0116089467258, -0.022226349623, -0.994504974837, 0.3445664544, 0.035892339, -9.8787681041, 0.0286303147878, 0.0538007304047, -0.99066120335, 0.1890329854, 0.4091726646, -10.0959167551
2.68846917152, 0.011672912502, -0.02412485542, -0.9937809925, 0.34516466005, 0.0167497582, -9.8715896363, 0.0271606569807, 0.0533205283649, -0.991982684279, 0.17527425545, 0.4043870194, -10.1090772793
2.69866108894, 0.011672912502, -0.02412485542, -0.9937809925, 0.34516466005, 0.0167497582, -9.8715896363, 0.0271606569807, 0.0533205283649, -0.991982684279, 0.17527425545, 0.4043870194, -10.1090772793
2.70883202553, 0.0140396462203, -0.0243621686446, -0.991609045488, 0.3672982691, 0.0143569356, -9.8500542329, 0.0275440459738, 0.0537407051497, -0.989099453161, 0.17886348935, 0.40857445895, -10.0803634081
2.71905493736, 0.0140396462203, -0.0243621686446, -0.991609045488, 0.3672982691, 0.0143569356, -9.8500542329, 0.0275440459738, 0.0537407051497, -0.989099453161, 0.17886348935, 0.40857445895, -10.0803634081
2.7292330265, 0.0132720569063, -0.0228196326846, -0.995108293452, 0.3601198013, 0.0299102825, -9.8847501606, 0.0249242211873, 0.0563818163685, -0.986456491303, 0.1543370577, 0.43489550755, -10.0540423596
2.73941612244, 0.0130801595778, -0.0238282138892, -0.996194266957, 0.3601198013, 0.0299102825, -9.8847501606, 0.0283108239601, 0.0532605031099, -0.987717904917, 0.1543370577, 0.43489550755, -10.0540423596
2.7496240139, 0.0130801595778, -0.0238282138892, -0.996194266957, 0.35832518435, 0.01974078645, -9.8955178623, 0.0283108239601, 0.0532605031099, -0.987717904917, 0.18604195715, 0.40378881375, -10.0666046782
2.75981712341, 0.0130801595778, -0.0238282138892, -0.996194266957, 0.35832518435, 0.01974078645, -9.8955178623, 0.0283108239601, 0.0532605031099, -0.987717904917, 0.18604195715, 0.40378881375, -10.0666046782
2.76999998093, 0.0129522280254, -0.0235315723584, -0.994806634144, 0.35712877305, 0.0227318147, -9.88175913235, 0.0282469257946, 0.055361387034, -0.986396423988, 0.1854437515, 0.4247260115, -10.0534441539
2.78023004532, 0.0129522280254, -0.0235315723584, -0.994806634144, 0.35712877305, 0.0227318147, -9.88175913235, 0.0282469257946, 0.055361387034, -0.986396423988, 0.1854437515, 0.4247260115, -10.0534441539
2.79097795486, 0.0137837831156, -0.0254300781554, -0.99462563856, 0.3649054465, 0.0035892339, -9.8799645154, 0.0283747221257, 0.0531404526, -0.988378645382, 0.1866401628, 0.40259240245, -10.0731849404
2.80117297173, 0.0137837831156, -0.0254300781554, -0.99462563856, 0.3649054465, 0.0035892339, -9.8799645154, 0.0283747221257, 0.0531404526, -0.988378645382, 0.1866401628, 0.40259240245, -10.0731849404
2.81134605408, 0.0127603306969, -0.0235315723584, -0.996857917433, 0.3553341561, 0.0227318147, -9.90209812445, 0.0288859074499, 0.0537407051497, -0.986997097138, 0.191425808, 0.40857445895, -10.0594262104
2.82158017159, 0.0127603306969, -0.0235315723584, -0.996857917433, 0.3553341561, 0.0227318147, -9.90209812445, 0.0288859074499, 0.0537407051497, -0.986997097138, 0.191425808, 0.40857445895, -10.0594262104
2.83172798157, 0.0127603306969, -0.0220483647046, -0.994504974837, 0.3553341561, 0.03768695595, -9.8787681041, 0.0287581111188, 0.055301361779, -0.99042093409, 0.1902293967, 0.42412780585, -10.0935239324
2.84191513062, 0.0127603306969, -0.0220483647046, -0.994504974837, 0.3553341561, 0.03768695595, -9.8787681041, 0.0287581111188, 0.055301361779, -0.99042093409, 0.1902293967, 0.42412780585, -10.0935239324
2.85206794739, 0.0139756804442, -0.0218110514799, -0.99547028462, 0.36670006345, 0.04007977855, -9.8883393945, 0.0285025184567, 0.0550612607591, -0.990481001405, 0.1878365741, 0.42173498325, -10.0941221381
2.86222195625, 0.0138477488918, -0.0228789609907, -0.995711612066, 0.36550365215, 0.02931207685, -9.8907322171, 0.0270967588152, 0.0518198969906, -0.99102160724, 0.1746760498, 0.38943187815, -10.0995059889
2.87242007256, 0.0138477488918, -0.0228789609907, -0.995711612066, 0.36550365215, 0.02931207685, -9.8907322171, 0.0270967588152, 0.0518198969906, -0.99102160724, 0.1746760498, 0.38943187815, -10.0995059889
2.88264799118, 0.0127603306969, -0.0248961234, -0.993298337609, 0.36550365215, 0.02931207685, -9.8907322171, 0.0293331946085, 0.0592030033523, -0.991922616964, 0.1746760498, 0.38943187815, -10.0995059889
2.89300894737, 0.0127603306969, -0.0248961234, -0.993298337609, 0.3553341561, 0.00897308475, -9.8668039911, 0.0293331946085, 0.0592030033523, -0.991922616964, 0.19561324755, 0.4630111731, -10.1084790737
2.90335202217, 0.0127603306969, -0.0248961234, -0.993298337609, 0.3553341561, 0.00897308475, -9.8668039911, 0.0293331946085, 0.0592030033523, -0.991922616964, 0.19561324755, 0.4630111731, -10.1084790737
2.91352105141, 0.0132080911301, -0.0249554517061, -0.996918249295, 0.35952159565, 0.0083748791, -9.9026963301, 0.0296526854362, 0.0548211597392, -0.994505511507, 0.1986042758, 0.41934216065, -10.1342019166
2.92383813858, 0.0111611862926, -0.0283371651569, -0.992634687133, 0.35952159565, 0.0083748791, -9.9026963301, 0.0296526854362, 0.0548211597392, -0.994505511507, 0.1986042758, 0.41934216065, -10.1342019166
2.93403697014, 0.0111611862926, -0.0283371651569, -0.992634687133, 0.34037901485, -0.02572284295, -9.86022372895, 0.0295248891051, 0.0518198969906, -0.991562213074, 0.1974078645, 0.38943187815, -10.1048898398
2.94442415237, 0.012440501816, -0.0226416477661, -0.994444642976, 0.34037901485, -0.02572284295, -9.86022372895, 0.0313779359054, 0.0518799222455, -0.989640058996, 0.1974078645, 0.38943187815, -10.1048898398
2.95459699631, 0.012440501816, -0.0226416477661, -0.994444642976, 0.35234312785, 0.03170489945, -9.87816989845, 0.0313779359054, 0.0518799222455, -0.989640058996, 0.21475582835, 0.3900300838, -10.085747259
2.96478796005, 0.012440501816, -0.0226416477661, -0.994444642976, 0.35234312785, 0.03170489945, -9.87816989845, 0.0313779359054, 0.0518799222455, -0.989640058996, 0.21475582835, 0.3900300838, -10.085747259
2.97517800331, 0.0127603306969, -0.0224043345415, -0.991790041073, 0.3553341561, 0.03409772205, -9.85184884985, 0.0269689624841, 0.0537407051497, -0.990120597515, 0.1734796385, 0.40857445895, -10.0905329042
2.98537015915, 0.0127603306969, -0.0224043345415, -0.991790041073, 0.3553341561, 0.03409772205, -9.85184884985, 0.0269689624841, 0.0537407051497, -0.990120597515, 0.1734796385, 0.40857445895, -10.0905329042
2.99564599991, 0.0121206729352, -0.0248367950938, -0.99462563856, 0.3493520996, 0.0095712904, -9.8799645154, 0.0266494716565, 0.0512196444408, -0.989279655106, 0.17048861025, 0.38344982165, -10.0821580251
3.00583100319, 0.0121206729352, -0.0248367950938, -0.99462563856, 0.3493520996, 0.0095712904, -9.8799645154, 0.0266494716565, 0.0512196444408, -0.989279655106, 0.17048861025, 0.38344982165, -10.0821580251
3.0159881115, 0.0130161938016, -0.0201498589076, -0.993599996916, 0.3577269787, 0.05682953675, -9.86979501935, 0.0306750560846, 0.055301361779, -0.988138376122, 0.2081755662, 0.42412780585, -10.0707921177
3.02617096901, 0.0130161938016, -0.0201498589076, -0.993599996916, 0.3577269787, 0.05682953675, -9.86979501935, 0.0306750560846, 0.055301361779, -0.988138376122, 0.2081755662, 0.42412780585, -10.0707921177
3.03635311127, 0.0121846387114, -0.0251927649307, -0.993961988084, 0.34995030525, 0.0059820565, -9.87338425325, 0.0274162496428, 0.0506794171461, -0.99030079946, 0.17766707805, 0.3780659708, -10.0923275211
3.04661512375, 0.0121846387114, -0.0251927649307, -0.993961988084, 0.34995030525, 0.0059820565, -9.87338425325, 0.0274162496428, 0.0506794171461, -0.99030079946, 0.17766707805, 0.3780659708, -10.0923275211
3.05677604675, 0.0114810151735, -0.0243028403384, -0.996194266957, 0.3433700431, 0.01495514125, -9.8955178623, 0.0277996386359, 0.0521200232654, -0.987537702972, 0.18125631195, 0.3924229064, -10.0648100613
3.06691217422, 0.0114810151735, -0.0243028403384, -0.996194266957, 0.3433700431, 0.01495514125, -9.8955178623, 0.0277996386359, 0.0521200232654, -0.987537702972, 0.18125631195, 0.3924229064, -10.0648100613
3.07707214355, 0.0134639542348, -0.0222856779292, -0.992212364103, 0.36191441825, 0.03529413335, -9.8560362894, 0.026713369822, 0.055301361779, -0.987717904917, 0.1710868159, 0.42412780585, -10.0666046782
3.08736801147, 0.0134639542348, -0.0222856779292, -0.992212364103, 0.36191441825, 0.03529413335, -9.8560362894, 0.026713369822, 0.055301361779, -0.987717904917, 0.1710868159, 0.42412780585, -10.0666046782
3.09757494926, 0.0130161938016, -0.0252520932369, -0.99589260765, 0.3577269787, 0.00538385085, -9.89252683405, 0.0279913331325, 0.0542809324445, -0.991442078444, 0.1830509289, 0.4139583098, -10.1036934285
3.10776209831, 0.0130161938016, -0.0252520932369, -0.99589260765, 0.3577269787, 0.00538385085, -9.89252683405, 0.0279913331325, 0.0542809324445, -0.991442078444, 0.1830509289, 0.4139583098, -10.1036934285
3.11793208122, 0.0125044675922, -0.0244214969507, -0.9937809925, 0.3529413335, 0.01375872995, -9.8715896363, 0.0297165836017, 0.0613038872763, -0.987657837602, 0.19920248145, 0.48394837085, -10.0660064725
3.12809610367, 0.0125044675922, -0.0244214969507, -0.9937809925, 0.3529413335, 0.01375872995, -9.8715896363, 0.0297165836017, 0.0613038872763, -0.987657837602, 0.19920248145, 0.48394837085, -10.0660064725
3.13826298714, 0.0127603306969, -0.0257267196861, -0.994444642976, 0.3553341561, 0.00059820565, -9.87816989845, 0.0295248891051, 0.0583626497826, -0.988318578067, 0.1974078645, 0.454636294, -10.0725867347
3.14850902557, 0.0127603306969, -0.0257267196861, -0.994444642976, 0.3553341561, 0.00059820565, -9.87816989845, 0.0295248891051, 0.0583626497826, -0.988318578067, 0.1974078645, 0.454636294, -10.0725867347
3.15883994102, 0.0105215285309, -0.0304136558723, -0.993057010163, 0.33439695835, -0.0466600407, -9.8644111685, 0.0290137037809, 0.0540408314246, -0.990120597515, 0.1926222193, 0.4115654872, -10.0905329042
3.16899895668, 0.0105215285309, -0.0304136558723, -0.993057010163, 0.33439695835, -0.0466600407, -9.8644111685, 0.0290137037809, 0.0540408314246, -0.990120597515, 0.1926222193, 0.4115654872, -10.0905329042
3.17921495438, 0.0125684333684, -0.0230569459092, -0.994685970422, 0.35353953915, 0.0275174599, -9.88056272105, 0.0275440459738, 0.0567419678984, -0.989039385846, 0.17886348935, 0.43848474145, -10.0797652025
3.18943095207, 0.0125684333684, -0.0230569459092, -0.994685970422, 0.35353953915, 0.0275174599, -9.88056272105, 0.0275440459738, 0.0567419678984, -0.989039385846, 0.17886348935, 0.43848474145, -10.0797652025
3.19964194298, 0.012056707159, -0.0252520932369, -0.992393359687, 0.34875389395, 0.00538385085, -9.85783090635, 0.0290137037809, 0.0545810587193, -0.988498780012, 0.1926222193, 0.41694933805, -10.0743813517
3.20982003212, 0.012056707159, -0.0252520932369, -0.992393359687, 0.34875389395, 0.00538385085, -9.85783090635, 0.0290137037809, 0.0545810587193, -0.988498780012, 0.1926222193, 0.41694933805, -10.0743813517
3.22000598907, 0.0128882622492, -0.040262154694, -0.993841324361, 0.3565305674, -0.1459621786, -9.87218784195, 0.0286303147878, 0.0578824477429, -0.99090147261, 0.1890329854, 0.4498506488, -10.0983095776
3.2307100296, 0.0128882622492, -0.040262154694, -0.993841324361, 0.3565305674, -0.1459621786, -9.87218784195, 0.0286303147878, 0.0578824477429, -0.99090147261, 0.1890329854, 0.4498506488, -10.0983095776
3.24087095261, 0.0126323991446, -0.0187853078661, -0.992695018994, 0.3541377448, 0.0705882667, -9.8608219346, 0.029269296443, 0.0547011092293, -0.988618914641, 0.1950150419, 0.41814574935, -10.0755777629
3.25109815598, 0.0126323991446, -0.0187853078661, -0.992695018994, 0.3541377448, 0.0705882667, -9.8608219346, 0.029269296443, 0.0547011092293, -0.988618914641, 0.1950150419, 0.41814574935, -10.0755777629
3.26128315926, 0.0109692889641, -0.0267353008908, -0.990945395013, 0.3385843979, -0.0095712904, -9.84347397075, 0.0282469257946, 0.0498390635765, -0.990841405295, 0.1854437515, 0.3696910917, -10.097711372
3.27149200439, 0.0109692889641, -0.0267353008908, -0.990945395013, 0.3385843979, -0.0095712904, -9.84347397075, 0.0282469257946, 0.0498390635765, -0.990841405295, 0.1854437515, 0.3696910917, -10.097711372
3.28165006638, 0.0131441253539, -0.0290491048308, -0.996857917433, 0.35892339, -0.03290131075, -9.90209812445, 0.0268411661531, 0.0574022457031, -0.991562213074, 0.1722832272, 0.4450650036, -10.1048898398
3.291877985, 0.0131441253539, -0.0290491048308, -0.996857917433, 0.35892339, -0.03290131075, -9.90209812445, 0.0268411661531, 0.0574022457031, -0.991562213074, 0.1722832272, 0.4450650036, -10.1048898398
3.30209302902, 0.0153189617438, -0.0229382892969, -0.99420331553, 0.3792623821, 0.0287138712, -9.87577707585, 0.0293970927741, 0.0559616395837, -0.989880328256, 0.1962114532, 0.430708068, -10.0881400816
3.31221699715, 0.0153189617438, -0.0229382892969, -0.99420331553, 0.3792623821, 0.0287138712, -9.87577707585, 0.0293970927741, 0.0559616395837, -0.989880328256, 0.1962114532, 0.430708068, -10.0881400816
3.32234311104, 0.0115449809496, -0.0276845537892, -0.994987629729, 0.34396824875, -0.0191425808, -9.8835537493, 0.0290137037809, 0.0563818163685, -0.990360866775, 0.1926222193, 0.43489550755, -10.0929257268
3.33251595497, 0.0115449809496, -0.0276845537892, -0.994987629729, 0.34396824875, -0.0191425808, -9.8835537493, 0.0290137037809, 0.0563818163685, -0.990360866775, 0.1926222193, 0.43489550755, -10.0929257268
3.34271812439, 0.012056707159, -0.0293457463616, -0.994685970422, 0.34396824875, -0.0191425808, -9.8835537493, 0.0282469257946, 0.0577023719779, -0.992643424744, 0.1926222193, 0.43489550755, -10.0929257268
3.3531601429, 0.012056707159, -0.0293457463616, -0.994685970422, 0.34875389395, -0.035892339, -9.88056272105, 0.0282469257946, 0.0577023719779, -0.992643424744, 0.1854437515, 0.44805603185, -10.1156575415
3.36341810226, 0.013527920011, -0.0111912846783, -0.993539665054, 0.3625126239, 0.1471585899, -9.8691968137, 0.0290776019464, 0.0556014880539, -0.987417568342, 0.19322042495, 0.4271188341, -10.0636136499
3.37359499931, 0.013527920011, -0.0111912846783, -0.993539665054, 0.3625126239, 0.1471585899, -9.8691968137, 0.0290776019464, 0.0556014880539, -0.987417568342, 0.19322042495, 0.4271188341, -10.0636136499
3.38373994827, 0.0125684333684, -0.0262013461354, -0.994504974837, 0.35353953915, -0.00418743955, -9.8787681041, 0.0290776019464, 0.0559616395837, -0.989219587791, 0.19322042495, 0.430708068, -10.0815598194
3.39397096634, 0.0125684333684, -0.0262013461354, -0.994504974837, 0.35353953915, -0.00418743955, -9.8787681041, 0.0290776019464, 0.0559616395837, -0.989219587791, 0.19322042495, 0.430708068, -10.0815598194
3.40423512459, 0.0125684333684, -0.0262013461354, -0.994504974837, 0.35353953915, -0.00418743955, -9.8787681041, 0.0290776019464, 0.0559616395837, -0.989219587791, 0.19322042495, 0.430708068, -10.0815598194
3.41452598572, 0.0132080911301, -0.0279218670138, -0.99462563856, 0.35952159565, -0.0215354034, -9.8799645154, 0.0281830276291, 0.0567419678984, -0.99078133798, 0.18484554585, 0.43848474145, -10.0971131663
3.42476916313, 0.0132080911301, -0.0279218670138, -0.99462563856, 0.35952159565, -0.0215354034, -9.8799645154, 0.0281830276291, 0.0567419678984, -0.99078133798, 0.18484554585, 0.43848474145, -10.0971131663
3.43492698669, 0.0119287756067, -0.0237095572769, -0.994504974837, 0.34755748265, 0.02093719775, -9.8787681041, 0.0273523514773, 0.0558415890738, -0.990000462885, 0.1770688724, 0.4295116567, -10.0893364929
3.4454729557, 0.0142315435489, -0.0240061988077, -0.99504796159, 0.36909288605, 0.0179461695, -9.88415195495, 0.027927434967, 0.0539207809146, -0.99102160724, 0.18245272325, 0.4103690759, -10.0995059889
3.45560407639, 0.0142315435489, -0.0240061988077, -0.99504796159, 0.36909288605, 0.0179461695, -9.88415195495, 0.027927434967, 0.0539207809146, -0.99102160724, 0.18245272325, 0.4103690759, -10.0995059889
3.46572208405, 0.0142315435489, -0.0240061988077, -0.99504796159, 0.36909288605, 0.0179461695, -9.88415195495, 0.027927434967, 0.0539207809146, -0.99102160724, 0.18245272325, 0.4103690759, -10.0995059889
3.47594308853, 0.0114170493973, -0.0229382892969, -0.993901656223, 0.34277183745, 0.0287138712, -9.8727860476, 0.026585573491, 0.0529003515801, -0.991802482334, 0.1698904046, 0.40019957985, -10.1072826624
3.48633408546, 0.0119927413828, -0.0285151500754, -0.99335866947, 0.34277183745, 0.0287138712, -9.8727860476, 0.0289498056154, 0.0551212860141, -0.989700126311, 0.1698904046, 0.40019957985, -10.1072826624
3.49661016464, 0.0119927413828, -0.0285151500754, -0.99335866947, 0.3481556883, -0.0275174599, -9.86740219675, 0.0289498056154, 0.0551212860141, -0.989700126311, 0.19202401365, 0.4223331889, -10.0863454646
3.50678300858, 0.0123765360399, -0.0277438820954, -0.992996678301, 0.3481556883, -0.0275174599, -9.86740219675, 0.0295887872706, 0.0571021194282, -0.994385376877, 0.19202401365, 0.4223331889, -10.0863454646
3.51710700989, 0.0123765360399, -0.0277438820954, -0.992996678301, 0.3517449222, -0.01974078645, -9.86381296285, 0.0295887872706, 0.0571021194282, -0.994385376877, 0.19800607015, 0.44207397535, -10.1330055054
3.52729010582, 0.0123765360399, -0.0277438820954, -0.992996678301, 0.3517449222, -0.01974078645, -9.86381296285, 0.0295887872706, 0.0571021194282, -0.994385376877, 0.19800607015, 0.44207397535, -10.1330055054
3.53748607635, 0.0133360226824, -0.02798119532, -0.995349620897, 0.36071800695, -0.02213360905, -9.8871429832, 0.0298443799327, 0.0532605031099, -0.986396423988, 0.20039889275, 0.40378881375, -10.0534441539
3.54767608643, 0.0133360226824, -0.02798119532, -0.995349620897, 0.36071800695, -0.02213360905, -9.8871429832, 0.0298443799327, 0.0532605031099, -0.986396423988, 0.20039889275, 0.40378881375, -10.0534441539
3.55789804459, 0.0119927413828, -0.0280405236262, -0.992695018994, 0.3481556883, -0.0227318147, -9.8608219346, 0.0277357404704, 0.0511596191859, -0.987657837602, 0.1806581063, 0.382851616, -10.0660064725
3.56808996201, 0.0119927413828, -0.0280405236262, -0.992695018994, 0.3481556883, -0.0227318147, -9.8608219346, 0.0277357404704, 0.0511596191859, -0.987657837602, 0.1806581063, 0.382851616, -10.0660064725
3.57825303078, 0.0127603306969, -0.0276252254831, -0.994022319946, 0.3553341561, -0.01854437515, -9.8739824589, 0.0283747221257, 0.0568620184083, -0.989579991681, 0.1866401628, 0.43968115275, -10.0851490533
3.5884950161, 0.0127603306969, -0.0276252254831, -0.994022319946, 0.3553341561, -0.01854437515, -9.8739824589, 0.0283747221257, 0.0568620184083, -0.989579991681, 0.1866401628, 0.43968115275, -10.0851490533
3.59863400459, 0.0100737680977, -0.0292864180554, -0.996918249295, 0.3302095188, -0.03529413335, -9.9026963301, 0.0298443799327, 0.0586627760575, -0.991862549649, 0.20039889275, 0.45762732225, -10.107880868
3.60875296593, 0.0100737680977, -0.0292864180554, -0.996918249295, 0.3302095188, -0.03529413335, -9.9026963301, 0.0298443799327, 0.0586627760575, -0.991862549649, 0.20039889275, 0.45762732225, -10.107880868
3.61889815331, 0.0118648098305, -0.0218110514799, -0.99166937735, 0.346959277, 0.04007977855, -9.85065243855, 0.0305472597535, 0.0586627760575, -0.989459857051, 0.2069791549, 0.45762732225, -10.0839526421
3.62913703918, 0.0118648098305, -0.0218110514799, -0.99166937735, 0.346959277, 0.04007977855, -9.85065243855, 0.0305472597535, 0.0586627760575, -0.989459857051, 0.2069791549, 0.45762732225, -10.0839526421
3.63928198814, 0.0119927413828, -0.0244214969507, -0.992272695964, 0.3481556883, 0.01375872995, -9.85663449505, 0.0295248891051, 0.0587228013125, -0.986756827878, 0.1974078645, 0.4582255279, -10.0570333878
3.64940905571, 0.0119927413828, -0.0244214969507, -0.992272695964, 0.3481556883, 0.01375872995, -9.85663449505, 0.0295248891051, 0.0587228013125, -0.986756827878, 0.1974078645, 0.4582255279, -10.0570333878
3.65959095955, 0.0126963649207, -0.0236502289707, -0.997823227216, 0.35473595045, 0.0215354034, -9.91166941485, 0.0284386202912, 0.0561417153486, -0.988618914641, 0.18723836845, 0.43250268495, -10.0755777629
3.66978216171, 0.0126963649207, -0.0236502289707, -0.997823227216, 0.35473595045, 0.0215354034, -9.91166941485, 0.0284386202912, 0.0561417153486, -0.988618914641, 0.18723836845, 0.43250268495, -10.0755777629
3.67994213104, 0.0126963649207, -0.0236502289707, -0.997823227216, 0.35473595045, 0.0215354034, -9.91166941485, 0.0284386202912, 0.0561417153486, -0.988618914641, 0.18723836845, 0.43250268495, -10.0755777629
3.69009804726, 0.0123125702637, -0.0218110514799, -0.99547028462, 0.35114671655, 0.04007977855, -9.8883393945, 0.0279913331325, 0.0554814375439, -0.990360866775, 0.1830509289, 0.4259224228, -10.0929257268
3.70042204857, 0.0123125702637, -0.0218110514799, -0.99547028462, 0.35114671655, 0.04007977855, -9.8883393945, 0.0279913331325, 0.0554814375439, -0.990360866775, 0.1830509289, 0.4259224228, -10.0929257268
3.71061897278, 0.0109692889641, -0.0230569459092, -0.99547028462, 0.3385843979, 0.0275174599, -9.8883393945, 0.0284386202912, 0.050859492911, -0.989640058996, 0.18723836845, 0.37986058775, -10.085747259
3.72080302238, 0.0109692889641, -0.0230569459092, -0.99547028462, 0.3385843979, 0.0275174599, -9.8883393945, 0.0284386202912, 0.050859492911, -0.989640058996, 0.18723836845, 0.37986058775, -10.085747259
3.7309949398, 0.0128242964731, -0.0249554517061, -0.998064554662, 0.35593236175, 0.0083748791, -9.91406223745, 0.0304194634225, 0.0526602505602, -0.990841405295, 0.2057827436, 0.39780675725, -10.097711372
3.74143099785, 0.0128242964731, -0.0249554517061, -0.998064554662, 0.35593236175, 0.0083748791, -9.91406223745, 0.0304194634225, 0.0526602505602, -0.990841405295, 0.2057827436, 0.39780675725, -10.097711372
3.75159716606, 0.0123125702637, -0.0252520932369, -0.993841324361, 0.35114671655, 0.00538385085, -9.87218784195, 0.0282469257946, 0.0564418416235, -0.99042093409, 0.1854437515, 0.4354937132, -10.0935239324
3.76174497604, 0.0110332547403, -0.0231756025215, -0.994685970422, 0.33918260355, 0.0263210486, -9.88056272105, 0.0255632028426, 0.0548211597392, -0.990120597515, 0.1603191142, 0.41934216065, -10.0905329042
3.77196097374, 0.0110332547403, -0.0231756025215, -0.994685970422, 0.33918260355, 0.0263210486, -9.88056272105, 0.0255632028426, 0.0548211597392, -0.990120597515, 0.1603191142, 0.41934216065, -10.0905329042
3.78209400177, 0.0140396462203, -0.0278625387077, -0.994685970422, 0.3672982691, -0.02093719775, -9.88056272105, 0.0299082780983, 0.0559016143287, -0.989640058996, 0.2009970984, 0.43010986235, -10.085747259
3.79230999947, 0.0140396462203, -0.0278625387077, -0.994685970422, 0.3672982691, -0.02093719775, -9.88056272105, 0.0299082780983, 0.0559016143287, -0.989640058996, 0.2009970984, 0.43010986235, -10.085747259
3.80253911018, 0.0140396462203, -0.0278625387077, -0.994685970422, 0.3672982691, -0.02093719775, -9.88056272105, 0.0299082780983, 0.0559016143287, -0.989640058996, 0.2009970984, 0.43010986235, -10.085747259
3.81281995773, 0.0132720569063, -0.0260233612169, -0.995108293452, 0.3601198013, -0.0023928226, -9.8847501606, 0.0296526854362, 0.057522296213, -0.990601136035, 0.1986042758, 0.4462614149, -10.0953185494
3.82298207283, 0.0128882622492, -0.0196159041522, -0.99715957674, 0.3565305674, 0.0622133876, -9.9050891527, 0.0301638707604, 0.0547611344843, -0.991502145759, 0.203389921, 0.418743955, -10.1042916341
3.83313298225, 0.0128882622492, -0.0196159041522, -0.99715957674, 0.3565305674, 0.0622133876, -9.9050891527, 0.0301638707604, 0.0547611344843, -0.991502145759, 0.203389921, 0.418743955, -10.1042916341
3.84332609177, 0.0139756804442, -0.0267946291969, -0.993961988084, 0.36670006345, -0.01016949605, -9.87338425325, 0.026713369822, 0.0527803010701, -0.988739049271, 0.1710868159, 0.39900316855, -10.0767741743
3.85358595848, 0.0139756804442, -0.0267946291969, -0.993961988084, 0.36670006345, -0.01016949605, -9.87338425325, 0.026713369822, 0.0527803010701, -0.988739049271, 0.1710868159, 0.39900316855, -10.0767741743
3.86372804642, 0.0115449809496, -0.0240061988077, -0.992755350856, 0.34396824875, 0.0179461695, -9.86142014025, 0.0290776019464, 0.0567419678984, -0.987477635657, 0.19322042495, 0.43848474145, -10.0642118556
3.8738951683, 0.0115449809496, -0.0240061988077, -0.992755350856, 0.34396824875, 0.0179461695, -9.86142014025, 0.0290776019464, 0.0567419678984, -0.987477635657, 0.19322042495, 0.43848474145, -10.0642118556
3.88409209251, 0.0117368782781, -0.0247181384815, -0.993599996916, 0.3457628657, 0.0107677017, -9.86979501935, 0.025499304677, 0.0514597454607, -0.988378645382, 0.15972090855, 0.38584264425, -10.0731849404
3.89430499077, 0.0117368782781, -0.0247181384815, -0.993599996916, 0.3457628657, 0.0107677017, -9.86979501935, 0.025499304677, 0.0514597454607, -0.988378645382, 0.15972090855, 0.38584264425, -10.0731849404
3.90455913544, 0.013527920011, -0.0263200027477, -0.991488381766, 0.3625126239, -0.00538385085, -9.8488578216, 0.0308028524156, 0.059803255902, -0.989519924366, 0.2093719775, 0.4689932296, -10.0845508477
3.91472506523, 0.013527920011, -0.0263200027477, -0.991488381766, 0.3625126239, -0.00538385085, -9.8488578216, 0.0308028524156, 0.059803255902, -0.989519924366, 0.2093719775, 0.4689932296, -10.0845508477
3.92493796349, 0.00802686326018, -0.0225229911538, -0.993599996916, 0.311066938, 0.03290131075, -9.86979501935, 0.0256271010081, 0.0494789120466, -0.989940395571, 0.16091731985, 0.3661018578, -10.0887382872
3.93506217003, 0.00802686326018, -0.0225229911538, -0.993599996916, 0.311066938, 0.03290131075, -9.86979501935, 0.0256271010081, 0.0494789120466, -0.989940395571, 0.16091731985, 0.3661018578, -10.0887382872
3.94519209862, 0.0150630986391, -0.0261420178292, -0.990523071983, 0.3768695595, -0.0035892339, -9.8392865312, 0.0292053982775, 0.0521200232654, -0.989579991681, 0.19441683625, 0.3924229064, -10.0851490533
3.95542097092, 0.0150630986391, -0.0261420178292, -0.990523071983, 0.3768695595, -0.0035892339, -9.8392865312, 0.0292053982775, 0.0521200232654, -0.989579991681, 0.19441683625, 0.3924229064, -10.0851490533
3.96557617188, 0.0154468932961, -0.0248367950938, -0.996013271373, 0.3804587934, 0.0095712904, -9.89372324535, 0.0288220092843, 0.0533205283649, -0.987838039547, 0.19082760235, 0.4043870194, -10.0678010895
3.9758181572, 0.0154468932961, -0.0248367950938, -0.996013271373, 0.3804587934, 0.0095712904, -9.89372324535, 0.0288220092843, 0.0533205283649, -0.987838039547, 0.19082760235, 0.4043870194, -10.0678010895
3.98606014252, 0.0119287756067, -0.0283371651569, -0.991428049904, 0.34755748265, -0.02572284295, -9.84825961595, 0.0287581111188, 0.0532605031099, -0.988618914641, 0.1902293967, 0.40378881375, -10.0755777629
3.99632716179, 0.0119287756067, -0.0283371651569, -0.991428049904, 0.34755748265, -0.02572284295, -9.84825961595, 0.0287581111188, 0.0532605031099, -0.988618914641, 0.1902293967, 0.40378881375, -10.0755777629
4.0065331459, 0.0106494600832, -0.0253707498492, -0.99589260765, 0.33559336965, 0.00418743955, -9.89252683405, 0.0295887872706, 0.0568019931533, -0.99066120335, 0.19800607015, 0.4390829471, -10.0959167551
4.01672196388, 0.0106494600832, -0.0253707498492, -0.99589260765, 0.33559336965, 0.00418743955, -9.89252683405, 0.0295887872706, 0.0568019931533, -0.99066120335, 0.19800607015, 0.4390829471, -10.0959167551
4.0269370079, 0.0100098023215, -0.0384229772032, -0.994685970422, 0.32961131315, -0.12741780345, -9.88056272105, 0.0297804817672, 0.0538607556597, -0.984714539169, 0.1998006871, 0.40977087025, -10.0366943957
4.03712916374, 0.0100098023215, -0.0384229772032, -0.994685970422, 0.32961131315, -0.12741780345, -9.88056272105, 0.0297804817672, 0.0538607556597, -0.984714539169, 0.1998006871, 0.40977087025, -10.0366943957
4.04730510712, 0.0141675777727, -0.0184886663353, -0.994082651807, 0.3684946804, 0.07357929495, -9.87458066455, 0.0300360744293, 0.0550612607591, -0.989640058996, 0.2021935097, 0.42173498325, -10.085747259
4.05746412277, 0.0141675777727, -0.0184886663353, -0.994082651807, 0.3684946804, 0.07357929495, -9.87458066455, 0.0300360744293, 0.0550612607591, -0.989640058996, 0.2021935097, 0.42173498325, -10.085747259
4.06766915321, 0.0123765360399, -0.024540153563, -0.995952939512, 0.3517449222, 0.01256231865, -9.8931250397, 0.0286303147878, 0.0562617658586, -0.988739049271, 0.1890329854, 0.43369909625, -10.0767741743
4.07784509659, 0.0123765360399, -0.024540153563, -0.995952939512, 0.3517449222, 0.01256231865, -9.8931250397, 0.0286303147878, 0.0562617658586, -0.988739049271, 0.1890329854, 0.43369909625, -10.0767741743
4.08798909187, 0.0126323991446, -0.0273879122585, -0.99547028462, 0.3541377448, -0.01615155255, -9.8883393945, 0.0299721762638, 0.0543409576994, -0.992883694003, 0.20159530405, 0.41455651545, -10.1180503641
4.0981631279, 0.0126323991446, -0.0273879122585, -0.99547028462, 0.3541377448, -0.01615155255, -9.8883393945, 0.0299721762638, 0.0543409576994, -0.992883694003, 0.20159530405, 0.41455651545, -10.1180503641
4.10846400261, 0.0140396462203, -0.0198532173768, -0.995590948343, 0.3672982691, 0.059820565, -9.8895358058, 0.0285025184567, 0.0544009829544, -0.991442078444, 0.1878365741, 0.4151547211, -10.1036934285
4.11869096756, 0.0140396462203, -0.0198532173768, -0.995590948343, 0.3672982691, 0.059820565, -9.8895358058, 0.0285025184567, 0.0544009829544, -0.991442078444, 0.1878365741, 0.4151547211, -10.1036934285
4.12886500359, 0.0126963649207, -0.0269726141154, -0.993901656223, 0.35473595045, -0.011964113, -9.8727860476, 0.0284386202912, 0.0559616395837, -0.989519924366, 0.18723836845, 0.430708068, -10.0845508477
4.13914513588, 0.0126963649207, -0.0269726141154, -0.993901656223, 0.35473595045, -0.011964113, -9.8727860476, 0.0284386202912, 0.0559616395837, -0.989519924366, 0.18723836845, 0.430708068, -10.0845508477
4.1493370533, 0.0128882622492, -0.022997617603, -0.992212364103, 0.3565305674, 0.02811566555, -9.8560362894, 0.0268411661531, 0.0507394424011, -0.99054106872, 0.1722832272, 0.37866417645, -10.0947203437
4.15946006775, 0.0128882622492, -0.022997617603, -0.992212364103, 0.3565305674, 0.02811566555, -9.8560362894, 0.0268411661531, 0.0507394424011, -0.99054106872, 0.1722832272, 0.37866417645, -10.0947203437
4.16959905624, 0.0128882622492, -0.0250147800123, -0.993177673886, 0.3565305674, 0.00777667345, -9.8656075798, 0.0275440459738, 0.0539207809146, -0.988018241492, 0.17886348935, 0.4103690759, -10.0695957064
4.17980408669, 0.0128882622492, -0.0250147800123, -0.993177673886, 0.3565305674, 0.00777667345, -9.8656075798, 0.0275440459738, 0.0539207809146, -0.988018241492, 0.17886348935, 0.4103690759, -10.0695957064
4.18998003006, 0.0134639542348, -0.0226416477661, -0.993539665054, 0.36191441825, 0.03170489945, -9.8691968137, 0.0276718423049, 0.0586027508025, -0.991862549649, 0.18005990065, 0.4570291166, -10.107880868
4.20014095306, 0.0134639542348, -0.0226416477661, -0.993539665054, 0.36191441825, 0.03170489945, -9.8691968137, 0.0276718423049, 0.0586027508025, -0.991862549649, 0.18005990065, 0.4570291166, -10.107880868
4.21051812172, 0.0126963649207, -0.0297610445046, -0.9937809925, 0.35473595045, -0.04007977855, -9.8715896363, 0.0293331946085, 0.0587228013125, -0.991922616964, 0.19561324755, 0.4582255279, -10.1084790737
4.22084212303, 0.0126963649207, -0.0297610445046, -0.9937809925, 0.35473595045, -0.04007977855, -9.8715896363, 0.0293331946085, 0.0587228013125, -0.991922616964, 0.19561324755, 0.4582255279, -10.1084790737
4.2309820652, 0.0148072355344, -0.0248961234, -0.99335866947, 0.3744767369, 0.00897308475, -9.86740219675, 0.0276079441394, 0.0535606293848, -0.987958174177, 0.179461695, 0.406779842, -10.0689975008
4.24115300179, 0.0148072355344, -0.0248961234, -0.99335866947, 0.3744767369, 0.00897308475, -9.86740219675, 0.0276079441394, 0.0535606293848, -0.987958174177, 0.179461695, 0.406779842, -10.0689975008
4.25131607056, 0.0111611862926, -0.0283964934631, -0.994384311114, 0.34037901485, -0.0263210486, -9.8775716928, 0.0292053982775, 0.0568620184083, -0.989279655106, 0.19441683625, 0.43968115275, -10.0821580251
4.26147913933, 0.0111611862926, -0.0283964934631, -0.994384311114, 0.34037901485, -0.0263210486, -9.8775716928, 0.0292053982775, 0.0568620184083, -0.989279655106, 0.19441683625, 0.43968115275, -10.0821580251
4.27160716057, 0.0112251520688, -0.0294050746677, -0.996616589987, 0.3409772205, -0.03649054465, -9.89970530185, 0.0283747221257, 0.0512196444408, -0.9912618765, 0.1866401628, 0.38344982165, -10.1018988115
4.28187298775, 0.0112251520688, -0.0294050746677, -0.996616589987, 0.3409772205, -0.03649054465, -9.89970530185, 0.0283747221257, 0.0512196444408, -0.9912618765, 0.1866401628, 0.38344982165, -10.1018988115
4.29227113724, 0.0132080911301, -0.0260826895231, -0.998004222801, 0.35952159565, -0.00299102825, -9.9134640318, 0.0289498056154, 0.0560816900937, -0.990000462885, 0.19202401365, 0.4319044793, -10.0893364929
4.30243515968, 0.0132080911301, -0.0260826895231, -0.998004222801, 0.35952159565, -0.00299102825, -9.9134640318, 0.0289498056154, 0.0560816900937, -0.990000462885, 0.19202401365, 0.4319044793, -10.0893364929
4.31262898445, 0.0123125702637, -0.0264979876661, -0.996254598819, 0.35114671655, -0.0071784678, -9.89611606795, 0.0282469257946, 0.0581225487627, -0.991862549649, 0.1854437515, 0.4522434714, -10.107880868
4.32285904884, 0.0123125702637, -0.0264979876661, -0.996254598819, 0.35114671655, -0.0071784678, -9.89611606795, 0.0282469257946, 0.0581225487627, -0.991862549649, 0.1854437515, 0.4522434714, -10.107880868
4.33299803734, 0.0108413574117, -0.0281591802385, -0.992695018994, 0.3373879866, -0.023928226, -9.8608219346, 0.0272884533117, 0.0566219173884, -0.990841405295, 0.17647066675, 0.43728833015, -10.097711372
4.34314513206, 0.0108413574117, -0.0281591802385, -0.992695018994, 0.3373879866, -0.023928226, -9.8608219346, 0.0272884533117, 0.0566219173884, -0.990841405295, 0.17647066675, 0.43728833015, -10.097711372
4.35328006744, 0.0121846387114, -0.0272692556461, -0.994746302283, 0.34995030525, -0.01495514125, -9.8811609267, 0.0277996386359, 0.0536806798947, -0.986456491303, 0.18125631195, 0.4079762533, -10.0540423596
4.36347103119, 0.0121846387114, -0.0272692556461, -0.994746302283, 0.34995030525, -0.01495514125, -9.8811609267, 0.0277996386359, 0.0536806798947, -0.986456491303, 0.18125631195, 0.4079762533, -10.0540423596
4.37360906601, 0.0122486044875, -0.0201498589076, -0.996013271373, 0.3505485109, 0.05682953675, -9.89372324535, 0.0290137037809, 0.0561417153486, -0.988498780012, 0.1926222193, 0.43250268495, -10.0743813517
4.38375806808, 0.0122486044875, -0.0201498589076, -0.996013271373, 0.3505485109, 0.05682953675, -9.89372324535, 0.0290137037809, 0.0561417153486, -0.988498780012, 0.1926222193, 0.43250268495, -10.0743813517
4.39396309853, 0.012440501816, -0.0234129157461, -0.992634687133, 0.35234312785, 0.023928226, -9.86022372895, 0.0294609909396, 0.0568019931533, -0.988739049271, 0.1926222193, 0.43250268495, -10.0743813517
4.40432214737, 0.012440501816, -0.0234129157461, -0.992634687133, 0.35234312785, 0.023928226, -9.86022372895, 0.0294609909396, 0.0568019931533, -0.988739049271, 0.19680965885, 0.4390829471, -10.0767741743
4.41446709633, 0.0107134258594, -0.0203278438261, -0.996133935096, 0.3361915753, 0.0550349198, -9.89491965665, 0.0269689624841, 0.0538607556597, -0.987717904917, 0.1734796385, 0.40977087025, -10.0666046782
4.42465305328, 0.0107134258594, -0.0203278438261, -0.996133935096, 0.3361915753, 0.0550349198, -9.89491965665, 0.0269689624841, 0.0538607556597, -0.987717904917, 0.1734796385, 0.40977087025, -10.0666046782
4.43481111526, 0.0117368782781, -0.0248961234, -0.995530616482, 0.3457628657, 0.00897308475, -9.88893760015, 0.0283108239601, 0.0555414627989, -0.989339722421, 0.18604195715, 0.42652062845, -10.0827562307
4.44495916367, 0.0117368782781, -0.0248961234, -0.995530616482, 0.3457628657, 0.00897308475, -9.88893760015, 0.0283108239601, 0.0555414627989, -0.989339722421, 0.18604195715, 0.42652062845, -10.0827562307
4.45563697815, 0.0134639542348, -0.0238875421953, -0.991910704796, 0.3457628657, 0.00897308475, -9.88893760015, 0.0266494716565, 0.0550012355041, -0.988618914641, 0.18604195715, 0.42652062845, -10.0827562307
4.46619200706, 0.0134639542348, -0.0238875421953, -0.991910704796, 0.36191441825, 0.0191425808, -9.85304526115, 0.0266494716565, 0.0550012355041, -0.988618914641, 0.17048861025, 0.4211367776, -10.0755777629
4.47657203674, 0.0130801595778, -0.0258453762984, -0.994142983669, 0.35832518435, -0.00059820565, -9.8751788702, 0.0278635368015, 0.0563217911136, -0.989940395571, 0.1818545176, 0.4342973019, -10.0887382872
4.48670911789, 0.0130801595778, -0.0258453762984, -0.994142983669, 0.35832518435, -0.00059820565, -9.8751788702, 0.0278635368015, 0.0563217911136, -0.989940395571, 0.1818545176, 0.4342973019, -10.0887382872
4.49749708176, 0.013911714668, -0.021455081643, -0.99631493068, 0.3661018578, 0.04366901245, -9.8967142736, 0.0282469257946, 0.0565618921334, -0.988799116586, 0.1854437515, 0.4366901245, -10.0773723799
4.50814414024, 0.013911714668, -0.021455081643, -0.99631493068, 0.3661018578, 0.04366901245, -9.8967142736, 0.0282469257946, 0.0565618921334, -0.988799116586, 0.1854437515, 0.4366901245, -10.0773723799
4.51829314232, 0.013911714668, -0.021455081643, -0.99631493068, 0.3661018578, 0.04366901245, -9.8967142736, 0.0282469257946, 0.0565618921334, -0.988799116586, 0.1854437515, 0.4366901245, -10.0773723799
4.52846002579, 0.0149991328629, -0.0268539575031, -0.99293634644, 0.37627135385, -0.0107677017, -9.8632147572, 0.0263938789944, 0.0533205283649, -0.991321943815, 0.16809578765, 0.4043870194, -10.1024970172
4.53867816925, 0.0149991328629, -0.0268539575031, -0.99293634644, 0.37627135385, -0.0107677017, -9.8632147572, 0.0263938789944, 0.0533205283649, -0.991321943815, 0.16809578765, 0.4043870194, -10.1024970172
4.54886507988, 0.0113530836211, -0.0229382892969, -0.994082651807, 0.3421736318, 0.0287138712, -9.87458066455, 0.0279913331325, 0.0523000990304, -0.986456491303, 0.1830509289, 0.39421752335, -10.0540423596
4.55906701088, 0.0113530836211, -0.0229382892969, -0.994082651807, 0.3421736318, 0.0287138712, -9.87458066455, 0.0279913331325, 0.0523000990304, -0.986456491303, 0.1830509289, 0.39421752335, -10.0540423596
4.56920814514, 0.0126963649207, -0.0240061988077, -0.993177673886, 0.35473595045, 0.0179461695, -9.8656075798, 0.0272884533117, 0.0520599980105, -0.987297433712, 0.17647066675, 0.39182470075, -10.0624172386
4.57938504219, 0.0126963649207, -0.0240061988077, -0.993177673886, 0.35473595045, 0.0179461695, -9.8656075798, 0.0272884533117, 0.0520599980105, -0.987297433712, 0.17647066675, 0.39182470075, -10.0624172386
4.58958816528, 0.0117368782781, -0.0235909006646, -0.995409952759, 0.3457628657, 0.02213360905, -9.88774118885, 0.0284386202912, 0.0529003515801, -0.988498780012, 0.18723836845, 0.40019957985, -10.0743813517
4.59983110428, 0.0117368782781, -0.0235909006646, -0.995409952759, 0.3457628657, 0.02213360905, -9.88774118885, 0.0284386202912, 0.0529003515801, -0.988498780012, 0.18723836845, 0.40019957985, -10.0743813517
4.61040210724, 0.011672912502, -0.024540153563, -0.993660328777, 0.3457628657, 0.02213360905, -9.88774118885, 0.0302916670914, 0.0520599980105, -0.988799116586, 0.18723836845, 0.40019957985, -10.0743813517
4.62054896355, 0.011672912502, -0.024540153563, -0.993660328777, 0.34516466005, 0.01256231865, -9.870393225, 0.0302916670914, 0.0520599980105, -0.988799116586, 0.2045863323, 0.39182470075, -10.0773723799
4.63067793846, 0.0132080911301, -0.0270319424215, -0.992634687133, 0.35952159565, -0.01256231865, -9.86022372895, 0.0297165836017, 0.0535606293848, -0.991562213074, 0.19920248145, 0.406779842, -10.1048898398
4.64094209671, 0.0132080911301, -0.0270319424215, -0.992634687133, 0.35952159565, -0.01256231865, -9.86022372895, 0.0297165836017, 0.0535606293848, -0.991562213074, 0.19920248145, 0.406779842, -10.1048898398
4.65122199059, 0.0132080911301, -0.0270319424215, -0.992634687133, 0.35952159565, -0.01256231865, -9.86022372895, 0.0297165836017, 0.0535606293848, -0.991562213074, 0.19920248145, 0.406779842, -10.1048898398
4.66163396835, 0.0126323991446, -0.0253707498492, -0.995711612066, 0.3541377448, 0.00418743955, -9.8907322171, 0.0286942129533, 0.0554814375439, -0.986756827878, 0.18963119105, 0.4259224228, -10.0570333878
4.67180109024, 0.0126323991446, -0.0253707498492, -0.995711612066, 0.3541377448, 0.00418743955, -9.8907322171, 0.0286942129533, 0.0554814375439, -0.986756827878, 0.18963119105, 0.4259224228, -10.0570333878
4.68198800087, 0.0137837831156, -0.0237095572769, -0.996616589987, 0.3649054465, 0.02093719775, -9.89970530185, 0.0278635368015, 0.0587228013125, -0.988078308807, 0.1818545176, 0.4582255279, -10.0701939121
4.69219899178, 0.0137837831156, -0.0237095572769, -0.996616589987, 0.3649054465, 0.02093719775, -9.89970530185, 0.0278635368015, 0.0587228013125, -0.988078308807, 0.1818545176, 0.4582255279, -10.0701939121
4.7023639679, 0.0126323991446, -0.0248367950938, -0.995832275789, 0.3541377448, 0.0095712904, -9.8919286284, 0.026713369822, 0.0523601242853, -0.993844771043, 0.1710868159, 0.394815729, -10.1276216545
4.71255016327, 0.0126323991446, -0.0248367950938, -0.995832275789, 0.3541377448, 0.0095712904, -9.8919286284, 0.026713369822, 0.0523601242853, -0.993844771043, 0.1710868159, 0.394815729, -10.1276216545
4.72270512581, 0.0118008440543, -0.02566739138, -0.994866966006, 0.34636107135, 0.0011964113, -9.882357338, 0.0293970927741, 0.0580024982528, -0.988979318531, 0.1962114532, 0.4510470601, -10.0791669969
4.73290300369, 0.0118008440543, -0.02566739138, -0.994866966006, 0.34636107135, 0.0011964113, -9.882357338, 0.0293970927741, 0.0580024982528, -0.988979318531, 0.1962114532, 0.4510470601, -10.0791669969
4.74308109283, 0.0143594751012, -0.0265573159723, -0.996616589987, 0.37028929735, -0.00777667345, -9.89970530185, 0.0275440459738, 0.0607036347266, -0.988739049271, 0.17886348935, 0.47796631435, -10.0767741743
4.75328397751, 0.0143594751012, -0.0265573159723, -0.996616589987, 0.37028929735, -0.00777667345, -9.89970530185, 0.0275440459738, 0.0607036347266, -0.988739049271, 0.17886348935, 0.47796631435, -10.0767741743
4.76367807388, 0.0126323991446, -0.0237095572769, -0.991910704796, 0.37028929735, -0.00777667345, -9.89970530185, 0.0285664166222, 0.0554814375439, -0.991562213074, 0.17886348935, 0.47796631435, -10.0767741743
4.77383613586, 0.0126323991446, -0.0237095572769, -0.991910704796, 0.3541377448, 0.02093719775, -9.85304526115, 0.0285664166222, 0.0554814375439, -0.991562213074, 0.18843477975, 0.4259224228, -10.1048898398
4.78396105766, 0.0118008440543, -0.02720992734, -0.993117342024, 0.34636107135, -0.0143569356, -9.86500937415, 0.0295887872706, 0.0550612607591, -0.989880328256, 0.19800607015, 0.42173498325, -10.0881400816
4.7941160202, 0.0118008440543, -0.02720992734, -0.993117342024, 0.34636107135, -0.0143569356, -9.86500937415, 0.0295887872706, 0.0550612607591, -0.989880328256, 0.19800607015, 0.42173498325, -10.0881400816
4.80427002907, 0.0118008440543, -0.02720992734, -0.993117342024, 0.34636107135, -0.0143569356, -9.86500937415, 0.0295887872706, 0.0550612607591, -0.989880328256, 0.19800607015, 0.42173498325, -10.0881400816
4.814412117, 0.0141036119965, -0.0250741083184, -0.996918249295, 0.36789647475, 0.0071784678, -9.9026963301, 0.027927434967, 0.0551813112691, -0.992463222799, 0.18245272325, 0.42293139455, -10.1138629246
4.82458305359, 0.0141036119965, -0.0250741083184, -0.996918249295, 0.36789647475, 0.0071784678, -9.9026963301, 0.027927434967, 0.0551813112691, -0.992463222799, 0.18245272325, 0.42293139455, -10.1138629246
4.83475708961, 0.0133360226824, -0.0211584401122, -0.993599996916, 0.36071800695, 0.0466600407, -9.86979501935, 0.0283747221257, 0.0542809324445, -0.991802482334, 0.1866401628, 0.4139583098, -10.1072826624
4.84498095512, 0.0133360226824, -0.0211584401122, -0.993599996916, 0.36071800695, 0.0466600407, -9.86979501935, 0.0283747221257, 0.0542809324445, -0.991802482334, 0.1866401628, 0.4139583098, -10.1072826624
4.85513615608, 0.01020169965, -0.0259047046046, -0.992815682717, 0.3314059301, -0.0011964113, -9.8620183459, 0.0271606569807, 0.0544610082094, -0.990601136035, 0.17527425545, 0.41575292675, -10.0953185494
4.86533999443, 0.01020169965, -0.0259047046046, -0.992815682717, 0.3314059301, -0.0011964113, -9.8620183459, 0.0271606569807, 0.0544610082094, -0.990601136035, 0.17527425545, 0.41575292675, -10.0953185494
4.87570905685, 0.0101377338739, -0.0292864180554, -0.994082651807, 0.33080772445, -0.03529413335, -9.87458066455, 0.0293970927741, 0.0560216648387, -0.989640058996, 0.1962114532, 0.43130627365, -10.085747259
4.88586711884, 0.0101377338739, -0.0292864180554, -0.994082651807, 0.33080772445, -0.03529413335, -9.87458066455, 0.0293970927741, 0.0560216648387, -0.989640058996, 0.1962114532, 0.43130627365, -10.085747259
4.89611506462, 0.0146153382059, -0.024540153563, -0.992333027826, 0.37268211995, 0.01256231865, -9.8572327007, 0.0282469257946, 0.0549412102492, -0.991321943815, 0.1854437515, 0.42053857195, -10.1024970172
4.90632009506, 0.0146153382059, -0.024540153563, -0.992333027826, 0.37268211995, 0.01256231865, -9.8572327007, 0.0282469257946, 0.0549412102492, -0.991321943815, 0.1854437515, 0.42053857195, -10.1024970172
4.91720199585, 0.0144234408774, -0.0224043345415, -0.992333027826, 0.370887503, 0.03409772205, -9.8572327007, 0.027927434967, 0.0533205283649, -0.988558847326, 0.18245272325, 0.4043870194, -10.0749795573
4.92749214172, 0.0144234408774, -0.0224043345415, -0.992333027826, 0.370887503, 0.03409772205, -9.8572327007, 0.027927434967, 0.0533205283649, -0.988558847326, 0.18245272325, 0.4043870194, -10.0749795573
4.93762302399, 0.0119287756067, -0.0234129157461, -0.995168625313, 0.34755748265, 0.023928226, -9.88534836625, 0.027927434967, 0.0557815638188, -0.989219587791, 0.18245272325, 0.42891345105, -10.0815598194
4.94784498215, 0.0119287756067, -0.0234129157461, -0.995168625313, 0.34755748265, 0.023928226, -9.88534836625, 0.027927434967, 0.0557815638188, -0.989219587791, 0.18245272325, 0.42891345105, -10.0815598194
4.9580309391, 0.014295509325, -0.0251334366246, -0.994685970422, 0.3696910917, 0.00658026215, -9.88056272105, 0.0299082780983, 0.0521800485204, -0.99090147261, 0.2009970984, 0.39302111205, -10.0983095776
4.96822404861, 0.014295509325, -0.0251334366246, -0.994685970422, 0.3696910917, 0.00658026215, -9.88056272105, 0.0299082780983, 0.0521800485204, -0.99090147261, 0.2009970984, 0.39302111205, -10.0983095776
4.97840809822, 0.014295509325, -0.0251334366246, -0.994685970422, 0.3696910917, 0.00658026215, -9.88056272105, 0.0299082780983, 0.0521800485204, -0.99090147261, 0.2009970984, 0.39302111205, -10.0983095776
4.98860502243, 0.0121206729352, -0.0236502289707, -0.995711612066, 0.3493520996, 0.0215354034, -9.8907322171, 0.0299721762638, 0.0546410839743, -0.989099453161, 0.20159530405, 0.4175475437, -10.0803634081
4.99897003174, 0.0121846387114, -0.0222856779292, -0.993177673886, 0.34995030525, 0.03529413335, -9.8656075798, 0.0288859074499, 0.0565018668785, -0.988438712697, 0.191425808, 0.43609191885, -10.073783146
5.00921607018, 0.0121846387114, -0.0222856779292, -0.993177673886, 0.34995030525, 0.03529413335, -9.8656075798, 0.0288859074499, 0.0565018668785, -0.988438712697, 0.191425808, 0.43609191885, -10.073783146
5.01949501038, 0.0144234408774, -0.0187259795599, -0.995832275789, 0.370887503, 0.07118647235, -9.8919286284, 0.0287581111188, 0.0538607556597, -0.988198443437, 0.191425808, 0.43609191885, -10.073783146
5.02998900414, 0.0144234408774, -0.0187259795599, -0.995832275789, 0.370887503, 0.07118647235, -9.8919286284, 0.0287581111188, 0.0538607556597, -0.988198443437, 0.1902293967, 0.40977087025, -10.0713903234
5.04013299942, 0.0144234408774, -0.0187259795599, -0.995832275789, 0.370887503, 0.07118647235, -9.8919286284, 0.0287581111188, 0.0538607556597, -0.988198443437, 0.1902293967, 0.40977087025, -10.0713903234
5.05033016205, 0.012056707159, -0.0255487347677, -0.995530616482, 0.34875389395, 0.0023928226, -9.88893760015, 0.0274162496428, 0.057522296213, -0.989519924366, 0.17766707805, 0.4462614149, -10.0845508477
5.06053805351, 0.012056707159, -0.0255487347677, -0.995530616482, 0.34875389395, 0.0023928226, -9.88893760015, 0.0274162496428, 0.057522296213, -0.989519924366, 0.17766707805, 0.4462614149, -10.0845508477
5.07068514824, 0.0114170493973, -0.0273879122585, -0.994565306699, 0.34277183745, -0.01615155255, -9.87936630975, 0.0292053982775, 0.0518198969906, -0.986636693248, 0.19441683625, 0.38943187815, -10.0558369765
5.08086299896, 0.0114170493973, -0.0273879122585, -0.994565306699, 0.34277183745, -0.01615155255, -9.87936630975, 0.0292053982775, 0.0518198969906, -0.986636693248, 0.19441683625, 0.38943187815, -10.0558369765
5.09115099907, 0.011672912502, -0.0263793310538, -0.995108293452, 0.34516466005, -0.0059820565, -9.8847501606, 0.028055231298, 0.0541008566796, -0.989640058996, 0.18364913455, 0.41216369285, -10.085747259
5.1013071537, 0.011672912502, -0.0263793310538, -0.995108293452, 0.34516466005, -0.0059820565, -9.8847501606, 0.028055231298, 0.0541008566796, -0.989640058996, 0.18364913455, 0.41216369285, -10.085747259
5.11144399643, 0.012440501816, -0.0245994818692, -0.994685970422, 0.35234312785, 0.011964113, -9.88056272105, 0.0267772679875, 0.0567419678984, -0.991201809185, 0.17168502155, 0.43848474145, -10.1013006059
5.12179112434, 0.012440501816, -0.0245994818692, -0.994685970422, 0.35234312785, 0.011964113, -9.88056272105, 0.0267772679875, 0.0567419678984, -0.991201809185, 0.17168502155, 0.43848474145, -10.1013006059
5.13212108612, 0.0121206729352, -0.0235315723584, -0.993177673886, 0.3493520996, 0.0227318147, -9.8656075798, 0.0261382863323, 0.0531404526, -0.99054106872, 0.16570296505, 0.40259240245, -10.0947203437
5.14231514931, 0.0121206729352, -0.0235315723584, -0.993177673886, 0.3493520996, 0.0227318147, -9.8656075798, 0.0261382863323, 0.0531404526, -0.99054106872, 0.16570296505, 0.40259240245, -10.0947203437
5.15247702599, 0.00905031567893, -0.0287524633, -0.99335866947, 0.3206382284, -0.0299102825, -9.86740219675, 0.0290776019464, 0.0557215385638, -0.986756827878, 0.19322042495, 0.4283152454, -10.0570333878
5.1626830101, 0.00905031567893, -0.0287524633, -0.99335866947, 0.3206382284, -0.0299102825, -9.86740219675, 0.0290776019464, 0.0557215385638, -0.986756827878, 0.19322042495, 0.4283152454, -10.0570333878
5.17282795906, 0.0118008440543, -0.0278032104015, -0.991367718043, 0.34636107135, -0.0203389921, -9.8476614103, 0.0281191294636, 0.0695873724626, -0.99030079946, 0.1842473402, 0.56650075055, -10.0923275211
5.18300199509, 0.0118008440543, -0.0278032104015, -0.991367718043, 0.34636107135, -0.0203389921, -9.8476614103, 0.0281191294636, 0.0695873724626, -0.99030079946, 0.1842473402, 0.56650075055, -10.0923275211
5.1931951046, 0.0118008440543, -0.0278032104015, -0.991367718043, 0.34636107135, -0.0203389921, -9.8476614103, 0.0281191294636, 0.0695873724626, -0.99030079946, 0.1842473402, 0.56650075055, -10.0923275211
5.20335102081, 0.0132720569063, -0.0271505990338, -0.995409952759, 0.3601198013, -0.01375872995, -9.88774118885, 0.0301638707604, 0.0550012355041, -0.991802482334, 0.203389921, 0.4211367776, -10.1072826624
5.21351313591, 0.0132720569063, -0.0271505990338, -0.995409952759, 0.3601198013, -0.01375872995, -9.88774118885, 0.0301638707604, 0.0550012355041, -0.991802482334, 0.203389921, 0.4211367776, -10.1072826624
5.22366499901, 0.0113530836211, -0.0234129157461, -0.993479333193, 0.3421736318, 0.023928226, -9.86859860805, 0.0274801478083, 0.0554814375439, -0.989579991681, 0.1782652837, 0.4259224228, -10.0851490533
5.23390603065, 0.0113530836211, -0.0234129157461, -0.993479333193, 0.3421736318, 0.023928226, -9.86859860805, 0.0274801478083, 0.0554814375439, -0.989579991681, 0.1782652837, 0.4259224228, -10.0851490533
5.24406909943, 0.0134639542348, -0.0256080630738, -0.993177673886, 0.36191441825, 0.00179461695, -9.8656075798, 0.0286942129533, 0.0531404526, -0.988258510752, 0.18963119105, 0.40259240245, -10.0719885291
5.25424695015, 0.0134639542348, -0.0256080630738, -0.993177673886, 0.36191441825, 0.00179461695, -9.8656075798, 0.0286942129533, 0.0531404526, -0.988258510752, 0.18963119105, 0.40259240245, -10.0719885291
5.26444911957, 0.0125044675922, -0.0224043345415, -0.992634687133, 0.3529413335, 0.03409772205, -9.86022372895, 0.0319530193951, 0.0535006041298, -0.985795750838, 0.2201396792, 0.40618163635, -10.0474620974
5.27476000786, 0.0125044675922, -0.0224043345415, -0.992634687133, 0.3529413335, 0.03409772205, -9.86022372895, 0.0319530193951, 0.0535006041298, -0.985795750838, 0.2201396792, 0.40618163635, -10.0474620974
5.28489899635, 0.0104575627547, -0.0194972475399, -0.993298337609, 0.3337987527, 0.0634097989, -9.8668039911, 0.0272884533117, 0.059743230647, -0.989459857051, 0.17647066675, 0.46839502395, -10.0839526421
5.29506516457, 0.0104575627547, -0.0194972475399, -0.993298337609, 0.3337987527, 0.0634097989, -9.8668039911, 0.0272884533117, 0.059743230647, -0.989459857051, 0.17647066675, 0.46839502395, -10.0839526421
5.30531311035, 0.011672912502, -0.0243621686446, -0.993599996916, 0.34516466005, 0.0143569356, -9.86979501935, 0.0297804817672, 0.0583626497826, -0.988558847326, 0.1998006871, 0.454636294, -10.0749795573
5.31565999985, 0.011672912502, -0.0243621686446, -0.993599996916, 0.34516466005, 0.0143569356, -9.86979501935, 0.0297804817672, 0.0583626497826, -0.988558847326, 0.1998006871, 0.454636294, -10.0749795573
5.32582998276, 0.0105854943071, -0.0222856779292, -0.992634687133, 0.334995164, 0.03529413335, -9.86022372895, 0.0287581111188, 0.0561417153486, -0.992102818909, 0.1902293967, 0.43250268495, -10.1102736906
5.33599114418, 0.0105854943071, -0.0222856779292, -0.992634687133, 0.334995164, 0.03529413335, -9.86022372895, 0.0287581111188, 0.0561417153486, -0.992102818909, 0.1902293967, 0.43250268495, -10.1102736906
5.34617996216, 0.0136558515633, -0.0251334366246, -0.9937809925, 0.3637090352, 0.00658026215, -9.8715896363, 0.0275440459738, 0.0540408314246, -0.991081674555, 0.17886348935, 0.4115654872, -10.1001041946
5.35643005371, 0.0136558515633, -0.0251334366246, -0.9937809925, 0.3637090352, 0.00658026215, -9.8715896363, 0.0275440459738, 0.0540408314246, -0.991081674555, 0.17886348935, 0.4115654872, -10.1001041946
5.36669516563, 0.012440501816, -0.0248961234, -0.994384311114, 0.35234312785, 0.00897308475, -9.8775716928, 0.0262660826633, 0.050859492911, -0.990120597515, 0.16689937635, 0.37986058775, -10.0905329042
5.37695407867, 0.012440501816, -0.0248961234, -0.994384311114, 0.35234312785, 0.00897308475, -9.8775716928, 0.0262660826633, 0.050859492911, -0.990120597515, 0.16689937635, 0.37986058775, -10.0905329042
5.38721513748, 0.0147432697582, -0.0257267196861, -0.993961988084, 0.37387853125, 0.00059820565, -9.87338425325, 0.0289498056154, 0.0488786594969, -0.992403155484, 0.19202401365, 0.3601198013, -10.1132647189
5.39736509323, 0.0147432697582, -0.0257267196861, -0.993961988084, 0.37387853125, 0.00059820565, -9.87338425325, 0.0289498056154, 0.0488786594969, -0.992403155484, 0.19202401365, 0.3601198013, -10.1132647189
5.40751504898, 0.0147432697582, -0.0257267196861, -0.993961988084, 0.37387853125, 0.00059820565, -9.87338425325, 0.0289498056154, 0.0488786594969, -0.992403155484, 0.19202401365, 0.3601198013, -10.1132647189
5.41768693924, 0.00905031567893, -0.0255487347677, -0.992634687133, 0.3206382284, 0.0023928226, -9.86022372895, 0.0307389542501, 0.0580024982528, -0.988378645382, 0.20877377185, 0.4510470601, -10.0731849404
5.42790913582, 0.00905031567893, -0.0255487347677, -0.992634687133, 0.3206382284, 0.0023928226, -9.86022372895, 0.0307389542501, 0.0580024982528, -0.988378645382, 0.20877377185, 0.4510470601, -10.0731849404
5.43811011314, 0.0110332547403, -0.0217517231738, -0.993720660639, 0.33918260355, 0.0406779842, -9.87099143065, 0.0294609909396, 0.0548811849942, -0.99066120335, 0.19680965885, 0.4199403663, -10.0959167551
5.44829916954, 0.0110332547403, -0.0217517231738, -0.993720660639, 0.33918260355, 0.0406779842, -9.87099143065, 0.0294609909396, 0.0548811849942, -0.99066120335, 0.19680965885, 0.4199403663, -10.0959167551
5.45852017403, 0.0145513724297, -0.0269726141154, -0.994987629729, 0.3720839143, -0.011964113, -9.8835537493, 0.0282469257946, 0.0536206546398, -0.99066120335, 0.1854437515, 0.40737804765, -10.0959167551
5.46869301796, 0.0145513724297, -0.0269726141154, -0.994987629729, 0.3720839143, -0.011964113, -9.8835537493, 0.0282469257946, 0.0536206546398, -0.99066120335, 0.1854437515, 0.40737804765, -10.0959167551
5.47881603241, 0.0128242964731, -0.0232942591338, -0.991186722458, 0.35593236175, 0.0251246373, -9.84586679335, 0.0286303147878, 0.0554814375439, -0.992283020854, 0.1890329854, 0.4259224228, -10.1120683076
5.48900699615, 0.0128242964731, -0.0232942591338, -0.991186722458, 0.35593236175, 0.0251246373, -9.84586679335, 0.0286303147878, 0.0554814375439, -0.992283020854, 0.1890329854, 0.4259224228, -10.1120683076
5.49916005135, 0.0141036119965, -0.0235909006646, -0.992393359687, 0.36789647475, 0.02213360905, -9.85783090635, 0.0286942129533, 0.0568019931533, -0.989279655106, 0.18963119105, 0.4390829471, -10.0821580251
5.50933003426, 0.0141036119965, -0.0235909006646, -0.992393359687, 0.36789647475, 0.02213360905, -9.85783090635, 0.0286942129533, 0.0568019931533, -0.989279655106, 0.18963119105, 0.4390829471, -10.0821580251
5.51949906349, 0.0126963649207, -0.0250147800123, -0.996013271373, 0.35473595045, 0.00777667345, -9.89372324535, 0.0281191294636, 0.0550012355041, -0.990721270665, 0.1842473402, 0.4211367776, -10.0965149607
5.52990913391, 0.0126963649207, -0.0250147800123, -0.996013271373, 0.35473595045, 0.00777667345, -9.89372324535, 0.0281191294636, 0.0550012355041, -0.990721270665, 0.1842473402, 0.4211367776, -10.0965149607
5.54007601738, 0.0118008440543, -0.0274472405646, -0.991971036657, 0.34636107135, -0.0167497582, -9.8536434668, 0.0302277689259, 0.0590229275873, -0.987297433712, 0.20398812665, 0.46121655615, -10.0624172386
5.55022501945, 0.0118008440543, -0.0274472405646, -0.991971036657, 0.34636107135, -0.0167497582, -9.8536434668, 0.0302277689259, 0.0590229275873, -0.987297433712, 0.20398812665, 0.46121655615, -10.0624172386
5.56043696404, 0.0121206729352, -0.0270319424215, -0.991548713627, 0.34636107135, -0.0167497582, -9.8536434668, 0.0302277689259, 0.0590229275873, -0.987297433712, 0.20398812665, 0.46121655615, -10.0624172386
5.57072305679, 0.0121206729352, -0.0270319424215, -0.991548713627, 0.3493520996, -0.01256231865, -9.84945602725, 0.0297165836017, 0.0651455035946, -0.989459857051, 0.19920248145, 0.52223353245, -10.0839526421
5.58093714714, 0.0121206729352, -0.0270319424215, -0.991548713627, 0.3493520996, -0.01256231865, -9.84945602725, 0.0297165836017, 0.0651455035946, -0.989459857051, 0.19920248145, 0.52223353245, -10.0839526421
5.59112215042, 0.0130161938016, -0.0289897765246, -0.995349620897, 0.3577269787, -0.0323031051, -9.8871429832, 0.0266494716565, 0.0577623972329, -0.988138376122, 0.17048861025, 0.4486542375, -10.0707921177
5.60129499435, 0.0130161938016, -0.0289897765246, -0.995349620897, 0.3577269787, -0.0323031051, -9.8871429832, 0.0266494716565, 0.0577623972329, -0.988138376122, 0.17048861025, 0.4486542375, -10.0707921177
5.61147594452, 0.0103935969785, -0.0242435120323, -0.994263647392, 0.33320054705, 0.0155533469, -9.8763752815, 0.0293331946085, 0.0543409576994, -0.988558847326, 0.19561324755, 0.41455651545, -10.0749795573
5.62162709236, 0.0103935969785, -0.0242435120323, -0.994263647392, 0.33320054705, 0.0155533469, -9.8763752815, 0.0293331946085, 0.0543409576994, -0.988558847326, 0.19561324755, 0.41455651545, -10.0749795573
5.63179206848, 0.0157027564008, -0.0306509690969, -0.99673725371, 0.382851616, -0.0490528633, -9.90090171315, 0.029269296443, 0.0540408314246, -0.988919251216, 0.1950150419, 0.4115654872, -10.0785687912
5.64200997353, 0.0157027564008, -0.0306509690969, -0.99673725371, 0.382851616, -0.0490528633, -9.90090171315, 0.029269296443, 0.0540408314246, -0.988919251216, 0.1950150419, 0.4115654872, -10.0785687912
5.65214204788, 0.011672912502, -0.0251334366246, -0.994685970422, 0.34516466005, 0.00658026215, -9.88056272105, 0.029141500112, 0.0565618921334, -0.989459857051, 0.1938186306, 0.4366901245, -10.0839526421
5.66229295731, 0.011672912502, -0.0251334366246, -0.994685970422, 0.34516466005, 0.00658026215, -9.88056272105, 0.029141500112, 0.0565618921334, -0.989459857051, 0.1938186306, 0.4366901245, -10.0839526421
5.67246413231, 0.0146793039821, -0.0299983577292, -0.991971036657, 0.3732803256, -0.04247260115, -9.8536434668, 0.0282469257946, 0.0516398212257, -0.988678981956, 0.1854437515, 0.3876372612, -10.0761759686
5.68262910843, 0.0146793039821, -0.0299983577292, -0.991971036657, 0.3732803256, -0.04247260115, -9.8536434668, 0.0282469257946, 0.0516398212257, -0.988678981956, 0.1854437515, 0.3876372612, -10.0761759686
5.6927959919, 0.0119927413828, -0.0286931349939, -0.992815682717, 0.3481556883, -0.02931207685, -9.8620183459, 0.0297165836017, 0.0510395686759, -0.985735683523, 0.19920248145, 0.3816552047, -10.0468638917
5.70302009583, 0.0119927413828, -0.0286931349939, -0.992815682717, 0.3481556883, -0.02931207685, -9.8620183459, 0.0297165836017, 0.0510395686759, -0.985735683523, 0.19920248145, 0.3816552047, -10.0468638917
5.71324896812, 0.0151910301914, -0.0250147800123, -0.993419001331, 0.3780659708, 0.00777667345, -9.8680004024, 0.0258187955047, 0.055421412289, -0.989519924366, 0.1627119368, 0.42532421715, -10.0845508477
5.72343111038, 0.0151910301914, -0.0250147800123, -0.993419001331, 0.3780659708, 0.00777667345, -9.8680004024, 0.0258187955047, 0.055421412289, -0.989519924366, 0.1627119368, 0.42532421715, -10.0845508477
5.73360109329, 0.0123125702637, -0.0253707498492, -0.99420331553, 0.35114671655, 0.00418743955, -9.87577707585, 0.0276718423049, 0.0541608819345, -0.989940395571, 0.18005990065, 0.4127618985, -10.0887382872
5.74378609657, 0.0123125702637, -0.0253707498492, -0.99420331553, 0.35114671655, 0.00418743955, -9.87577707585, 0.0276718423049, 0.0541608819345, -0.989940395571, 0.18005990065, 0.4127618985, -10.0887382872
5.75398612022, 0.0123125702637, -0.0253707498492, -0.99420331553, 0.35114671655, 0.00418743955, -9.87577707585, 0.0276718423049, 0.0541608819345, -0.989940395571, 0.18005990065, 0.4127618985, -10.0887382872
5.76421999931, 0.0121846387114, -0.0298797011169, -0.991850372934, 0.34995030525, -0.04127618985, -9.8524470555, 0.0295887872706, 0.050919518166, -0.991081674555, 0.19800607015, 0.3804587934, -10.1001041946
5.77438902855, 0.0121846387114, -0.0298797011169, -0.991850372934, 0.34995030525, -0.04127618985, -9.8524470555, 0.0295887872706, 0.050919518166, -0.991081674555, 0.19800607015, 0.3804587934, -10.1001041946
5.78460001945, 0.0117368782781, -0.0228196326846, -0.992453691548, 0.3457628657, 0.0299102825, -9.858429112, 0.0273523514773, 0.0537407051497, -0.988198443437, 0.1770688724, 0.40857445895, -10.0713903234
5.79474401474, 0.0144874066535, -0.0248367950938, -0.99631493068, 0.3457628657, 0.0299102825, -9.858429112, 0.0273523514773, 0.0537407051497, -0.988198443437, 0.1770688724, 0.40857445895, -10.0713903234
5.80530405045, 0.0144874066535, -0.0248367950938, -0.99631493068, 0.37148570865, 0.0095712904, -9.8967142736, 0.0308028524156, 0.0532605031099, -0.989760193626, 0.2093719775, 0.40378881375, -10.0869436703
5.81563806534, 0.0144874066535, -0.0248367950938, -0.99631493068, 0.37148570865, 0.0095712904, -9.8967142736, 0.0308028524156, 0.0532605031099, -0.989760193626, 0.2093719775, 0.40378881375, -10.0869436703
5.82609510422, 0.0130161938016, -0.0224636628476, -0.992152032241, 0.3577269787, 0.0334995164, -9.85543808375, 0.029269296443, 0.0567419678984, -0.991442078444, 0.1950150419, 0.43848474145, -10.1036934285
5.83636116982, 0.0130161938016, -0.0224636628476, -0.992152032241, 0.3577269787, 0.0334995164, -9.85543808375, 0.029269296443, 0.0567419678984, -0.991442078444, 0.1950150419, 0.43848474145, -10.1036934285
5.84669208527, 0.0115449809496, -0.0231162742153, -0.993479333193, 0.34396824875, 0.02691925425, -9.86859860805, 0.0293331946085, 0.0534405788748, -0.988919251216, 0.19561324755, 0.4055834307, -10.0785687912
5.85701608658, 0.0115449809496, -0.0231162742153, -0.993479333193, 0.34396824875, 0.02691925425, -9.86859860805, 0.0293331946085, 0.0534405788748, -0.988919251216, 0.19561324755, 0.4055834307, -10.0785687912
5.86718010902, 0.0126323991446, -0.0290491048308, -0.994927297867, 0.3541377448, -0.03290131075, -9.88295554365, 0.0281191294636, 0.0526602505602, -0.989880328256, 0.1842473402, 0.39780675725, -10.0881400816
5.87735295296, 0.0126323991446, -0.0290491048308, -0.994927297867, 0.3541377448, -0.03290131075, -9.88295554365, 0.0281191294636, 0.0526602505602, -0.989880328256, 0.1842473402, 0.39780675725, -10.0881400816
5.88751506805, 0.0113530836211, -0.0271505990338, -0.996013271373, 0.3421736318, -0.01375872995, -9.89372324535, 0.0281191294636, 0.0580024982528, -0.990601136035, 0.1842473402, 0.4510470601, -10.0953185494
5.89775896072, 0.0113530836211, -0.0271505990338, -0.996013271373, 0.3421736318, -0.01375872995, -9.89372324535, 0.0281191294636, 0.0580024982528, -0.990601136035, 0.1842473402, 0.4510470601, -10.0953185494
5.90801095963, 0.0126963649207, -0.025311421543, -0.991307386181, 0.3421736318, -0.01375872995, -9.89372324535, 0.0281191294636, 0.0580024982528, -0.990601136035, 0.1842473402, 0.4510470601, -10.0953185494
5.91869115829, 0.0126963649207, -0.025311421543, -0.991307386181, 0.35473595045, 0.0047856452, -9.84706320465, 0.0286303147878, 0.0582425992727, -0.989399789736, 0.1890329854, 0.4534398827, -10.0833544364
5.92888712883, 0.0107773916356, -0.0257267196861, -0.995590948343, 0.33678978095, 0.00059820565, -9.8895358058, 0.027927434967, 0.0580625235078, -0.99090147261, 0.18245272325, 0.45164526575, -10.0983095776
5.93904900551, 0.0107773916356, -0.0257267196861, -0.995590948343, 0.33678978095, 0.00059820565, -9.8895358058, 0.027927434967, 0.0580625235078, -0.99090147261, 0.18245272325, 0.45164526575, -10.0983095776
5.94928908348, 0.0149351670867, -0.0262013461354, -0.994504974837, 0.33678978095, 0.00059820565, -9.8895358058, 0.0276079441394, 0.0547011092293, -0.990360866775, 0.18245272325, 0.45164526575, -10.0983095776
5.95946097374, 0.0149351670867, -0.0262013461354, -0.994504974837, 0.3756731482, -0.00418743955, -9.8787681041, 0.0276079441394, 0.0547011092293, -0.990360866775, 0.179461695, 0.41814574935, -10.0929257268
5.96983599663, 0.0149351670867, -0.0262013461354, -0.994504974837, 0.3756731482, -0.00418743955, -9.8787681041, 0.0276079441394, 0.0547011092293, -0.990360866775, 0.179461695, 0.41814574935, -10.0929257268
5.97999405861, 0.0131441253539, -0.0248961234, -0.994022319946, 0.35892339, 0.00897308475, -9.8739824589, 0.027927434967, 0.0569220436633, -0.990481001405, 0.18245272325, 0.4402793584, -10.0941221381
