TIME, IMU1_acc_x, IMU1_acc_y, IMU1_acc_z, IMU1_acc_raw_x, IMU1_acc_raw_y, IMU1_acc_raw_z,IMU2_acc_x, IMU2_acc_y,IMU2_acc_z, IMU2_acc_raw_x, IMU2_acc_raw_y, IMU2_acc_raw_z2.14576721191e-06, 0.0, 0.0, 0.0, 0.0, 0.0, 0.0, 0.0, 0.0, 0.0, 0.0, 0.0, 0.0
0.0502350330353, 0.0, 0.0, 0.0, 0.0, 0.0, 0.0, 0.0, 0.0, 0.0, 0.0, 0.0, 0.0
0.100791215897, 0.05394933805, -0.0303569356, -9.78663449505, 0.41694933805, -0.0143569356, -9.85663449505, -0.02119034115, -0.05235376705, -9.8846216545, 0.19680965885, 0.38464623295, -10.1276216545
0.15105509758, 0.0413870194, -0.0530887503, -9.7704829425, 0.4043870194, -0.0370887503, -9.8404829425, -0.0241813694, -0.06072864615, -9.86966651325, 0.1938186306, 0.37627135385, -10.1126665132
0.2012591362, 0.0461726646, 0.01809772205, -9.7740721764, 0.4091726646, 0.03409772205, -9.8440721764, -0.0134136677, 0.00148474145, -9.914531937, 0.2045863323, 0.43848474145, -10.157531937
0.251435995102, 0.04437804765, -0.03813360905, -9.77706320465, 0.40737804765, -0.02213360905, -9.84706320465, -0.0253777807, -0.06671070265, -9.9360673404, 0.1926222193, 0.37028929735, -10.1790673404
0.301614046097, 0.05155651545, -0.039928226, -9.80338425325, 0.41455651545, -0.023928226, -9.87338425325, -0.0277706033, -0.0469699162, -9.88641627145, 0.1902293967, 0.3900300838, -10.1294162714
0.351812124252, 0.0605296002, 0.00493719775, -9.776464999, 0.4235296002, 0.02093719775, -9.846464999, -0.02238675245, -0.01646142805, -9.90316602965, 0.19561324755, 0.42053857195, -10.1461660296
0.402024030685, 0.04078881375, -0.0136071774, -9.7932147572, 0.40378881375, 0.0023928226, -9.8632147572, -0.0110208451, -0.0577376179, -9.9013714127, 0.2069791549, 0.3792623821, -10.1443714127
0.452392101288, 0.02882470075, -0.04411566555, -9.76031344645, 0.39182470075, -0.02811566555, -9.83031344645, -0.0134136677, -0.0457735049, -9.8977821788, 0.2045863323, 0.3912264951, -10.1407821788
0.502570152283, 0.05514574935, -0.0494995164, -9.78184884985, 0.41814574935, -0.0334995164, -9.85184884985, -0.026574192, -0.05355017835, -9.8726575415, 0.191425808, 0.38344982165, -10.1156575415
0.552748203278, 0.04198522505, -0.05009772205, -9.7848398781, 0.40498522505, -0.03409772205, -9.8548398781, 0.00752353005, -0.0457735049, -9.89359473925, 0.22552353005, 0.3912264951, -10.1365947392
0.602931022644, 0.0270300838, -0.07522235935, -9.79620578545, 0.3900300838, -0.05922235935, -9.86620578545, -0.0086280225, -0.00449731505, -9.9001750014, 0.2093719775, 0.43250268495, -10.1431750014
0.653136014938, 0.03002111205, -0.06924030285, -9.75193856735, 0.39302111205, -0.05324030285, -9.82193856735, 0.0200858487, -0.0206488676, -9.8774431867, 0.2380858487, 0.4163511324, -10.1204431867
0.703323125839, 0.04677087025, -0.0973559684, -9.77706320465, 0.40977087025, -0.0813559684, -9.84706320465, -0.0110208451, -0.04278247665, -9.9396565743, 0.2069791549, 0.39421752335, -10.1826565743
0.753551006317, 0.0461726646, -0.0112143548, -9.7908219346, 0.4091726646, 0.0047856452, -9.8608219346, 0.0021396792, -0.1008084247, -9.9073534692, 0.2201396792, 0.3361915753, -10.1503534692
0.803728103638, 0.0533511324, 0.10543574695, -9.7704829425, 0.4163511324, 0.12143574695, -9.8404829425, -0.0098244338, -0.0206488676, -9.8834252432, 0.2081755662, 0.4163511324, -10.1264252432
0.853939056396, 0.0389941968, -0.02258026215, -9.7908219346, 0.4019941968, -0.00658026215, -9.8608219346, 0.00034506225, -0.02722912975, -9.9157283483, 0.21834506225, 0.40977087025, -10.1587283483
0.904168128967, 0.0545475437, -0.04770489945, -9.77706320465, 0.4175475437, -0.03170489945, -9.84706320465, -0.0098244338, -0.06910352525, -9.8894072997, 0.2081755662, 0.36789647475, -10.1324072997
0.954372167587, 0.0401906081, -0.0686420972, -9.7740721764, 0.4031906081, -0.0526420972, -9.8440721764, 0.00871994135, 0.0152434714, -9.9097462918, 0.22671994135, 0.4522434714, -10.1527462918
1.0045800209, 0.0401906081, -0.07043671415, -9.78184884985, 0.4031906081, -0.05443671415, -9.85184884985, -0.0086280225, 0.01105603185, -9.9252996387, 0.2093719775, 0.44805603185, -10.1682996387
1.05476903915, 0.0294229064, -0.04291925425, -9.7776614103, 0.3924229064, -0.02691925425, -9.8476614103, -0.03435086545, -0.0685053196, -9.9049606466, 0.18364913455, 0.3684946804, -10.1479606466
1.10500121117, 0.0617260115, -0.0818026215, -9.80218784195, 0.4247260115, -0.0658026215, -9.87218784195, -0.00444058295, -0.09662098515, -9.9169247596, 0.21355941705, 0.34037901485, -10.1599247596
1.15522003174, 0.05514574935, -0.0506959277, -9.7860362894, 0.41814574935, -0.0346959277, -9.8560362894, -0.02119034115, -0.0625232631, -9.88641627145, 0.19680965885, 0.3744767369, -10.1294162714
1.20540714264, 0.0569403663, -0.05249054465, -9.7824470555, 0.4199403663, -0.03649054465, -9.8524470555, -0.0181993129, -0.04876453315, -9.8977821788, 0.1998006871, 0.38823546685, -10.1407821788
1.25568914413, 0.02284264425, -0.0506959277, -9.7740721764, 0.38584264425, -0.0346959277, -9.8440721764, -0.03315445415, -0.03081836365, -9.9049606466, 0.18484554585, 0.40618163635, -10.1479606466
1.3058590889, 0.04677087025, -0.04531207685, -9.7692865312, 0.40977087025, -0.02931207685, -9.8392865312, -0.0289670146, -0.0553447953, -9.8870144771, 0.1890329854, 0.3816552047, -10.1300144771
1.35605716705, 0.05634216065, -0.04052643165, -9.77227755945, 0.41934216065, -0.02452643165, -9.84227755945, -0.0038423773, -0.0517555614, -9.9217104048, 0.2141576227, 0.3852444386, -10.1647104048
1.40623807907, 0.0485654872, -0.0375354034, -9.76988473685, 0.4115654872, -0.0215354034, -9.83988473685, -0.01999392985, -0.04038965405, -9.9348709291, 0.19800607015, 0.39661034595, -10.1778709291
1.45641112328, 0.019851616, -0.0219820565, -9.75792062385, 0.382851616, -0.0059820565, -9.82792062385, -0.01281546205, -0.01047937155, -9.9049606466, 0.20518453795, 0.42652062845, -10.1479606466
1.50656414032, 0.03600316855, -0.04052643165, -9.79740219675, 0.39900316855, -0.02452643165, -9.86740219675, -0.01520828465, -0.0254345128, -9.89598756185, 0.20279171535, 0.4115654872, -10.1389875618
1.55674219131, 0.0485654872, -0.00941973785, -9.7704829425, 0.4115654872, 0.00658026215, -9.8404829425, -0.0062351999, -0.0529519727, -9.8822288319, 0.2117648001, 0.3840480273, -10.1252288319
1.60692811012, 0.0617260115, -0.0459102825, -9.77706320465, 0.4247260115, -0.0299102825, -9.84706320465, 0.0021396792, -0.02962195235, -9.9073534692, 0.2201396792, 0.40737804765, -10.1503534692
1.65711116791, 0.0389941968, -0.051892339, -9.7561260069, 0.4019941968, -0.035892339, -9.8261260069, -0.02119034115, -0.04756812185, -9.90196961835, 0.19680965885, 0.38943187815, -10.1449696184
1.70730519295, 0.0413870194, -0.03933002035, -9.79381296285, 0.4043870194, -0.02333002035, -9.86381296285, -0.0038423773, -0.0673089083, -9.89120191665, 0.2141576227, 0.3696910917, -10.1342019166
1.75748705864, 0.03480675725, 0.10543574695, -9.7776614103, 0.40857445895, -0.0263210486, -9.8452685877, -0.0193957242, -0.07508558175, -9.90196961835, 0.1902293967, 0.39182470075, -10.1617193765
1.80768704414, 0.0389941968, 0.0210887503, -9.7609116521, 0.4019941968, 0.0370887503, -9.8309116521, -0.02119034115, -0.04038965405, -9.89838038445, 0.19680965885, 0.39661034595, -10.1413803844
1.85789322853, 0.03959240245, -0.0064287096, -9.76390268035, 0.40259240245, 0.0095712904, -9.83390268035, -0.0158064903, -0.0852550778, -9.87086292455, 0.2021935097, 0.3517449222, -10.1138629246
1.90807819366, 0.03959240245, -0.0674456859, -9.7860362894, 0.39062828945, -0.0251246373, -9.83629550295, 0.0045325018, -0.0373986258, -9.90555885225, 0.2021935097, 0.39421752335, -10.1359965336
1.95825505257, 0.019851616, -0.0004466531, -9.7836434668, 0.382851616, 0.0155533469, -9.8536434668, -0.0241813694, -0.0948263682, -9.90436244095, 0.1938186306, 0.3421736318, -10.1473624409
2.00842308998, 0.031815729, -0.0231784678, -9.7561260069, 0.394815729, -0.0071784678, -9.8261260069, -0.01879751855, -0.04278247665, -9.8941929449, 0.19920248145, 0.39421752335, -10.1371929449
2.05864405632, 0.0413870194, -0.08599006105, -9.7896255233, 0.4043870194, -0.06999006105, -9.8596255233, 0.0009432679, -0.0505591501, -9.9073534692, 0.2189432679, 0.3864408499, -10.1503534692
2.10884308815, 0.06112780585, -0.08957929495, -9.7704829425, 0.42412780585, -0.07357929495, -9.8404829425, -0.02597598635, -0.02603271845, -9.8654790737, 0.19202401365, 0.41096728155, -10.1084790737
2.15907120705, 0.0485654872, -0.0494995164, -9.7848398781, 0.4115654872, -0.0334995164, -9.8548398781, -0.01281546205, -0.02244348455, -9.89957679575, 0.20518453795, 0.41455651545, -10.1425767957
2.20924711227, 0.0413870194, -0.04531207685, -9.7788578216, 0.4043870194, -0.02931207685, -9.8488578216, 0.0057289131, 0.0212255279, -9.89838038445, 0.2237289131, 0.4582255279, -10.1413803844
2.25950813293, 0.04677087025, -0.0363389921, -9.7716793538, 0.40977087025, -0.0203389921, -9.8416793538, -0.0181993129, -0.02842554105, -9.88761268275, 0.1998006871, 0.40857445895, -10.1306126828
2.30969810486, 0.05036010415, -0.0423210486, -9.7633044747, 0.41336010415, -0.0263210486, -9.8333044747, -0.0217885468, -0.06431788005, -9.88402344885, 0.1962114532, 0.37268211995, -10.1270234488
2.35988807678, 0.0389941968, -0.02018743955, -9.78543808375, 0.4019941968, -0.00418743955, -9.85543808375, -0.02119034115, -0.0254345128, -9.9300852839, 0.19680965885, 0.4115654872, -10.1730852839
2.41002511978, 0.0330121403, -0.0746241537, -9.7728757651, 0.3960121403, -0.0586241537, -9.8428757651, 0.0069253244, -0.0134703998, -9.8882108884, 0.2249253244, 0.4235296002, -10.1312108884
2.46017313004, 0.0653152454, -0.01300897175, -9.7752685877, 0.4283152454, 0.00299102825, -9.8452685877, 0.0021396792, -0.0278273354, -9.88043421495, 0.2201396792, 0.4091726646, -10.1234342149
2.51035809517, 0.0569403663, -0.04291925425, -9.78783090635, 0.4199403663, -0.02691925425, -9.85783090635, -0.01161905075, -0.0433806823, -9.91273732005, 0.20638094925, 0.3936193177, -10.15573732
2.56052017212, 0.03959240245, -0.05847260115, -9.78902731765, 0.40259240245, -0.04247260115, -9.85902731765, -0.0445203615, -0.02962195235, -9.9217104048, 0.1734796385, 0.40737804765, -10.1647104048
2.61071705818, 0.02882470075, -0.04890131075, -9.75911703515, 0.39182470075, -0.03290131075, -9.82911703515, 0.0069253244, -0.07388917045, -9.87445215845, 0.2249253244, 0.36311082955, -10.1174521584
2.66092014313, 0.0545475437, -0.0351425808, -9.7776614103, 0.4175475437, -0.0191425808, -9.8476614103, -0.02477957505, -0.06790711395, -9.88880909405, 0.19322042495, 0.36909288605, -10.131809094
2.71119523048, 0.0366013742, -0.0052322983, -9.7573224182, 0.3996013742, 0.0107677017, -9.8273224182, -0.0289670146, -0.054148384, -9.8750503641, 0.1890329854, 0.382851616, -10.1180503641
2.76137304306, 0.05275292675, -0.02736590735, -9.77467038205, 0.41575292675, -0.01136590735, -9.84467038205, -0.0217885468, -0.08824610605, -9.91752296525, 0.1962114532, 0.34875389395, -10.1605229653
2.81153607368, 0.0354049629, -0.0602672181, -9.7836434668, 0.3984049629, -0.0442672181, -9.8536434668, 0.00393429615, 0.00746679795, -9.91034449745, 0.22193429615, 0.44446679795, -10.1533444974
2.86172604561, 0.067708068, 0.00134796385, -9.8087681041, 0.430708068, 0.01734796385, -9.8787681041, -0.0349490711, -0.05115735575, -9.89239832795, 0.1830509289, 0.38584264425, -10.1353983279
2.91187620163, 0.01805699905, -0.03334796385, -9.7621080634, 0.38105699905, -0.01734796385, -9.8321080634, -0.03076163155, -0.0996120134, -9.88043421495, 0.18723836845, 0.3373879866, -10.1234342149
2.96204805374, 0.0449762533, -0.0590708068, -9.78184884985, 0.4079762533, -0.0430708068, -9.85184884985, -0.02717239765, 0.03976990305, -9.91871937655, 0.19082760235, 0.47676990305, -10.1617193765
3.01223421097, 0.0377977855, -0.0363389921, -9.78783090635, 0.4007977855, -0.0203389921, -9.85783090635, -0.0014495547, -0.04637171055, -9.9037642353, 0.2165504453, 0.39062828945, -10.1467642353
3.06242918968, 0.0294229064, -0.06804389155, -9.76868832555, 0.3924229064, -0.05204389155, -9.83868832555, -0.02358316375, -0.06192505745, -9.8929965336, 0.19441683625, 0.37507494255, -10.1359965336
3.1126101017, 0.03719957985, -0.05249054465, -9.78663449505, 0.40019957985, -0.03649054465, -9.85663449505, -0.01640469595, -0.01047937155, -9.91632655395, 0.20159530405, 0.42652062845, -10.1593265539
3.16278004646, 0.031815729, -0.09795417405, -9.78184884985, 0.394815729, -0.08195417405, -9.85184884985, -0.02238675245, -0.05594300095, -9.9336745178, 0.19561324755, 0.38105699905, -10.1766745178
3.21298909187, 0.0449762533, -0.11590034355, -9.78663449505, 0.4079762533, -0.09990034355, -9.85663449505, -0.0134136677, -0.0685053196, -9.8929965336, 0.2045863323, 0.3684946804, -10.1359965336
3.26316714287, 0.05634216065, -0.00941973785, -9.77108114815, 0.41934216065, 0.00658026215, -9.84108114815, -0.0313598372, -0.0984156021, -9.9085498805, 0.1866401628, 0.3385843979, -10.1515498805
3.31332015991, 0.05275292675, -0.04291925425, -9.7609116521, 0.41575292675, -0.02691925425, -9.8309116521, -0.0170029016, -0.0565412066, -9.8953893562, 0.2009970984, 0.3804587934, -10.1383893562
3.36347818375, 0.05634216065, -0.039928226, -9.8015896363, 0.41934216065, -0.023928226, -9.8715896363, -0.01161905075, -0.0469699162, -9.9324781065, 0.20638094925, 0.3900300838, -10.1754781065
3.413626194, 0.0174587934, -0.004035887, -9.76150985775, 0.3804587934, 0.011964113, -9.83150985775, -0.03554727675, -0.05833582355, -9.9013714127, 0.18245272325, 0.37866417645, -10.1443714127
3.46387720108, 0.03719957985, -0.0219820565, -9.7728757651, 0.40019957985, -0.0059820565, -9.8428757651, -0.02717239765, -0.08585328345, -9.9217104048, 0.19082760235, 0.35114671655, -10.1647104048
3.51408219337, 0.0425834307, 0.0091246373, -9.82372324535, 0.4055834307, 0.0251246373, -9.89372324535, -0.0110208451, -0.04038965405, -9.90675526355, 0.2069791549, 0.39661034595, -10.1497552636
3.56432914734, 0.0270300838, -0.05727618985, -9.76509909165, 0.3900300838, -0.04127618985, -9.83509909165, -0.002645966, -0.02842554105, -9.9097462918, 0.215354034, 0.40857445895, -10.1527462918
3.61446499825, 0.04437804765, 0.0007497582, -9.7692865312, 0.40737804765, 0.0167497582, -9.8392865312, -0.01999392985, -0.0613268518, -9.89239832795, 0.19800607015, 0.3756731482, -10.1353983279
3.6646270752, 0.04437804765, -0.0554815729, -9.7800542329, 0.40737804765, -0.0394815729, -9.8500542329, -0.01760110725, -0.00808654895, -9.9013714127, 0.20039889275, 0.42891345105, -10.1443714127
3.71478915215, 0.0294229064, 0.0163031051, -9.76629550295, 0.3924229064, 0.0323031051, -9.83629550295, 0.00034506225, -0.0278273354, -9.92589784435, 0.21834506225, 0.4091726646, -10.1688978443
3.76499319077, 0.0366013742, -0.051892339, -9.79859860805, 0.3996013742, -0.035892339, -9.86859860805, -0.02477957505, -0.03321118625, -9.90795167485, 0.19322042495, 0.40378881375, -10.1509516748
3.81515216827, 0.043779842, -0.05009772205, -9.78424167245, 0.406779842, -0.03409772205, -9.85424167245, -0.02119034115, -0.07269275915, -9.90436244095, 0.19680965885, 0.36430724085, -10.1473624409
3.86533617973, 0.0174587934, 0.12098909385, -9.7704829425, 0.3804587934, 0.13698909385, -9.8404829425, -0.0122172564, -0.0409878597, -9.92649605, 0.2057827436, 0.3960121403, -10.16949605
3.91552400589, 0.05634216065, -0.06565106895, -9.7788578216, 0.41934216065, -0.04965106895, -9.8488578216, -0.03315445415, -0.0086847546, -9.91273732005, 0.18484554585, 0.4283152454, -10.15573732
3.96568608284, 0.0234408499, -0.06206183505, -9.7836434668, 0.3864408499, -0.04606183505, -9.8536434668, -0.03076163155, -0.05953223485, -9.93307631215, 0.18723836845, 0.37746776515, -10.1760763122
4.01582717896, 0.04557445895, -0.07522235935, -9.7704829425, 0.40857445895, -0.05922235935, -9.8404829425, -0.01999392985, -0.0409878597, -9.9049606466, 0.19800607015, 0.3960121403, -10.1479606466
4.06601405144, 0.0545475437, -0.0494995164, -9.79859860805, 0.4175475437, -0.0334995164, -9.86859860805, -0.01042263945, -0.0362022145, -9.9121391144, 0.20757736055, 0.4007977855, -10.1551391144
4.11618518829, 0.0641188341, -0.0303569356, -9.77347397075, 0.4271188341, -0.0143569356, -9.84347397075, -0.01640469595, -0.07747840435, -9.90077320705, 0.20159530405, 0.35952159565, -10.143773207
4.1664659977, 0.0485654872, -0.03454437515, -9.7944111685, 0.4115654872, -0.01854437515, -9.8644111685, -0.02597598635, -0.0732909648, -9.914531937, 0.19202401365, 0.3637090352, -10.157531937
4.2168700695, 0.0485654872, -0.0375354034, -9.7561260069, 0.40857445895, -0.0646062102, -9.86381296285, -0.0193957242, -0.05833582355, -9.9360673404, 0.1986042758, 0.37866417645, -10.1790673404
4.26807999611, 0.0509583098, -0.06086542375, -9.7728757651, 0.4139583098, -0.04486542375, -9.8428757651, -0.0134136677, -0.03201477495, -9.87923780365, 0.2045863323, 0.40498522505, -10.1222378037
4.31835913658, 0.0509583098, -0.01420538305, -9.8075716928, 0.4139583098, 0.00179461695, -9.8775716928, -0.00563699425, -0.0170596337, -9.9013714127, 0.21236300575, 0.4199403663, -10.1443714127
4.36868810654, 0.03002111205, -0.0506959277, -9.7980004024, 0.39302111205, -0.0346959277, -9.8680004024, -0.0002531434, -0.0553447953, -9.9169247596, 0.2177468566, 0.3816552047, -10.1599247596
4.41891407967, 0.05155651545, -0.1057308475, -9.7812506442, 0.41455651545, -0.0897308475, -9.8512506442, -0.0014495547, -0.0457735049, -9.90316602965, 0.2165504453, 0.3912264951, -10.1461660296
4.46907901764, 0.01925341035, -0.0698385085, -9.764500886, 0.38225341035, -0.0538385085, -9.834500886, -0.0325562485, -0.0697017309, -9.90795167485, 0.1854437515, 0.3672982691, -10.1509516748
4.51925706863, 0.04557445895, -0.0937667345, -9.79500937415, 0.40857445895, -0.0777667345, -9.86500937415, -0.0002531434, -0.02603271845, -9.902567824, 0.2177468566, 0.41096728155, -10.145567824
4.56947922707, 0.0425834307, -0.04411566555, -9.7788578216, 0.4055834307, -0.02811566555, -9.8488578216, -0.0229849581, -0.066112497, -9.89000550535, 0.1950150419, 0.370887503, -10.1330055054
4.61968207359, 0.0306193177, -0.0566779842, -9.7836434668, 0.3936193177, -0.0406779842, -9.8536434668, -0.01161905075, -0.04158606535, -9.86607727935, 0.20638094925, 0.39541393465, -10.1090772793
4.66985011101, 0.04078881375, -0.0100179435, -9.788429112, 0.40378881375, 0.0059820565, -9.858429112, -0.01760110725, -0.04876453315, -9.94264760255, 0.20039889275, 0.38823546685, -10.1856476025
4.72008419037, 0.04677087025, -0.00343768135, -9.7980004024, 0.40977087025, 0.01256231865, -9.8680004024, -0.0337526598, -0.0697017309, -9.88043421495, 0.1842473402, 0.3672982691, -10.1234342149
4.77025604248, 0.0581367776, -0.0363389921, -9.7836434668, 0.4211367776, -0.0203389921, -9.8536434668, -0.0134136677, -0.0242381015, -9.89598756185, 0.2045863323, 0.4127618985, -10.1389875618
4.8204190731, 0.0689044793, -0.02616949605, -9.7776614103, 0.4319044793, -0.01016949605, -9.8476614103, -0.01760110725, -0.05115735575, -9.8858180658, 0.20039889275, 0.38584264425, -10.1288180658
4.8706099987, 0.0270300838, -0.08000800455, -9.7633044747, 0.3900300838, -0.06400800455, -9.8333044747, -0.01760110725, -0.02483630715, -9.91991578785, 0.20039889275, 0.41216369285, -10.1629157879
4.92077207565, 0.0581367776, -0.09436494015, -9.7836434668, 0.4211367776, -0.07836494015, -9.8536434668, -0.0205921355, -0.07987122695, -9.8977821788, 0.1974078645, 0.35712877305, -10.1407821788
4.97100019455, 0.0497618985, -0.02258026215, -9.79500937415, 0.4127618985, -0.00658026215, -9.86500937415, -0.0050387886, -0.02842554105, -9.90196961835, 0.2129612114, 0.40857445895, -10.1449696184
5.02119803429, 0.04437804765, -0.039928226, -9.77706320465, 0.40737804765, -0.023928226, -9.84706320465, -0.026574192, -0.030220158, -9.88043421495, 0.191425808, 0.406779842, -10.1234342149
5.07136106491, 0.04796728155, -0.02377667345, -9.77347397075, 0.41096728155, -0.00777667345, -9.84347397075, -0.03554727675, -0.0840586665, -9.87564856975, 0.18245272325, 0.3529413335, -10.1186485698
5.12160015106, 0.06591345105, -0.051892339, -9.7860362894, 0.42891345105, -0.035892339, -9.8560362894, -0.02597598635, -0.06671070265, -9.9061570579, 0.19202401365, 0.37028929735, -10.1491570579
5.17172002792, 0.0270300838, -0.08240082715, -9.7656972973, 0.3900300838, -0.06640082715, -9.8356972973, -0.0193957242, -0.08824610605, -9.94504042515, 0.1986042758, 0.34875389395, -10.1880404251
5.22189211845, 0.0605296002, 0.01570489945, -9.7728757651, 0.4235296002, 0.03170489945, -9.8428757651, -0.02238675245, -0.0218452789, -9.8989785901, 0.19561324755, 0.4151547211, -10.1419785901
5.27209806442, 0.0413870194, -0.0506959277, -9.7944111685, 0.4043870194, -0.0346959277, -9.8644111685, -0.0170029016, -0.05355017835, -9.92111219915, 0.2009970984, 0.38344982165, -10.1641121991
5.32235908508, 0.04557445895, -0.01899102825, -9.7668937086, 0.40857445895, -0.00299102825, -9.8368937086, -0.00922622815, -0.04397888795, -9.90795167485, 0.20877377185, 0.39302111205, -10.1509516748
5.37258219719, 0.0425834307, -0.02258026215, -9.7692865312, 0.4055834307, -0.00658026215, -9.8392865312, -0.0134136677, -0.0230416902, -9.89359473925, 0.2045863323, 0.4139583098, -10.1365947392
5.42275214195, 0.0401906081, -0.05488336725, -9.77825961595, 0.4031906081, -0.03888336725, -9.84825961595, 0.00154147355, -0.05355017835, -9.9217104048, 0.21954147355, 0.38344982165, -10.1647104048
5.4729590416, 0.03361034595, -0.05847260115, -9.7824470555, 0.39661034595, -0.04247260115, -9.8524470555, -0.01640469595, -0.0409878597, -9.8929965336, 0.20159530405, 0.3960121403, -10.1359965336
5.5231192112, 0.02284264425, -0.063856452, -9.7800542329, 0.38584264425, -0.047856452, -9.8500542329, -0.0277706033, -0.0469699162, -9.92948707825, 0.1902293967, 0.3900300838, -10.1724870783
5.57336211205, 0.055743955, -0.06924030285, -9.7776614103, 0.418743955, -0.05324030285, -9.8476614103, -0.0217885468, -0.0601304405, -9.92350502175, 0.1962114532, 0.3768695595, -10.1665050217
5.62359118462, 0.0425834307, -0.0255712904, -9.81893760015, 0.4055834307, -0.0095712904, -9.88893760015, -0.0134136677, -0.0697017309, -9.8870144771, 0.2045863323, 0.3672982691, -10.1300144771
5.67378020287, 0.02284264425, -0.0578743955, -9.78304526115, 0.38584264425, -0.0418743955, -9.85304526115, -0.0134136677, -0.04038965405, -9.9193175822, 0.2045863323, 0.39661034595, -10.1623175822
5.7239420414, 0.0413870194, -0.0542851616, -9.7752685877, 0.4043870194, -0.0382851616, -9.8452685877, -0.00802981685, -0.04756812185, -9.8870144771, 0.20997018315, 0.38943187815, -10.1300144771
5.77419519424, 0.02164623295, -0.03334796385, -9.7716793538, 0.38464623295, -0.01734796385, -9.8416793538, -0.01281546205, -0.02124707325, -9.9420493969, 0.20518453795, 0.41575292675, -10.1850493969
5.82436203957, 0.0234408499, -0.07522235935, -9.7501439504, 0.3864408499, -0.05922235935, -9.8201439504, -0.0253777807, -0.07269275915, -9.8858180658, 0.1926222193, 0.36430724085, -10.1288180658
5.87462210655, 0.05036010415, -0.02138385085, -9.7788578216, 0.41336010415, -0.00538385085, -9.8488578216, -0.026574192, -0.07029993655, -9.8894072997, 0.191425808, 0.36670006345, -10.1324072997
5.92486405373, 0.0377977855, -0.03574078645, -9.77825961595, 0.4007977855, -0.01974078645, -9.84825961595, -0.014610079, -0.0373986258, -9.9061570579, 0.203389921, 0.3996013742, -10.1491570579
5.9750931263, 0.03600316855, -0.0064287096, -9.7716793538, 0.39900316855, 0.0095712904, -9.8416793538, -0.026574192, -0.1091833038, -9.88521986015, 0.191425808, 0.3278166962, -10.1282198601
6.02526211739, 0.03241393465, -0.0351425808, -9.7848398781, 0.39541393465, -0.0191425808, -9.8548398781, -0.02238675245, -0.02363989585, -9.9073534692, 0.19561324755, 0.41336010415, -10.1503534692
6.07546615601, 0.043779842, -0.0602672181, -9.76150985775, 0.406779842, -0.0442672181, -9.83150985775, -0.02956522025, -0.0720945535, -9.8918001223, 0.18843477975, 0.3649054465, -10.1348001223
6.12561607361, 0.03959240245, 0.00493719775, -9.77347397075, 0.40259240245, 0.02093719775, -9.84347397075, -0.0361454824, -0.03799683145, -9.8929965336, 0.1818545176, 0.39900316855, -10.1359965336
6.17579722404, 0.0461726646, -0.04411566555, -9.78424167245, 0.4091726646, -0.02811566555, -9.85424167245, -0.0409311276, -0.03919324275, -9.93666554605, 0.1770688724, 0.39780675725, -10.179665546
6.22597813606, 0.0354049629, -0.0770169763, -9.76270626905, 0.3984049629, -0.0610169763, -9.83270626905, -0.026574192, -0.02842554105, -9.9121391144, 0.191425808, 0.40857445895, -10.1551391144
6.27632403374, 0.019851616, -0.087784678, -9.79261655155, 0.41455651545, -0.03290131075, -9.83031344645, 0.00393429615, -0.07807661, -9.8690683076, 0.22193429615, 0.35892339, -10.1120683076
6.3276591301, 0.0294229064, -0.0578743955, -9.76390268035, 0.3924229064, -0.0418743955, -9.83390268035, -0.02358316375, -0.01047937155, -9.8846216545, 0.19441683625, 0.42652062845, -10.1276216545
6.37787413597, 0.02762828945, 0.0019461695, -9.80577707585, 0.39062828945, 0.0179461695, -9.87577707585, -0.00444058295, -0.03081836365, -9.8834252432, 0.21355941705, 0.40618163635, -10.1264252432
6.42812299728, 0.0653152454, -0.04052643165, -9.77706320465, 0.4283152454, -0.02452643165, -9.84706320465, -0.01401187335, -0.0445770936, -9.93187990085, 0.20398812665, 0.3924229064, -10.1748799008
6.47837209702, 0.03839599115, -0.0387318147, -9.77467038205, 0.40139599115, -0.0227318147, -9.84467038205, -0.01999392985, -0.05594300095, -9.8870144771, 0.19800607015, 0.38105699905, -10.1300144771
6.52855420113, 0.05036010415, -0.09675776275, -9.80099143065, 0.41336010415, -0.08075776275, -9.87099143065, -0.0038423773, -0.03799683145, -9.9324781065, 0.2141576227, 0.39900316855, -10.1754781065
6.57879018784, 0.031815729, -0.0435174599, -9.79022372895, 0.394815729, -0.0275174599, -9.86022372895, -0.0397347163, -0.04397888795, -9.92111219915, 0.1782652837, 0.39302111205, -10.1641121991
6.62893199921, 0.03600316855, -0.00343768135, -9.77227755945, 0.39900316855, 0.01256231865, -9.84227755945, -0.0181993129, -0.08704969475, -9.902567824, 0.1998006871, 0.34995030525, -10.145567824
6.6791100502, 0.04677087025, -0.05009772205, -9.78184884985, 0.40977087025, -0.03409772205, -9.85184884985, -0.02597598635, -0.0697017309, -9.89359473925, 0.19202401365, 0.3672982691, -10.1365947392
6.72927618027, 0.02403905555, -0.0315533469, -9.77945602725, 0.38703905555, -0.0155533469, -9.84945602725, -0.0170029016, -0.0924335456, -9.91752296525, 0.2009970984, 0.3445664544, -10.1605229653
6.77944517136, 0.02044982165, -0.02975872995, -9.776464999, 0.38344982165, -0.01375872995, -9.846464999, -0.0241813694, -0.0170596337, -9.85411316635, 0.1938186306, 0.4199403663, -10.0971131663
6.82960820198, 0.06232421715, -0.0494995164, -9.76031344645, 0.42532421715, -0.0334995164, -9.83031344645, 0.0045325018, -0.03680042015, -9.9073534692, 0.2225325018, 0.40019957985, -10.1503534692
6.87980318069, 0.0222444386, -0.016, -9.77945602725, 0.3852444386, -0.0, -9.84945602725, -0.01161905075, -0.1043976586, -9.9276924613, 0.20638094925, 0.3326023414, -10.1706924613
6.93002009392, 0.05155651545, -0.04770489945, -9.7824470555, 0.41455651545, -0.03170489945, -9.8524470555, -0.0241813694, -0.03321118625, -9.9109427031, 0.1938186306, 0.40378881375, -10.1539427031
6.98019218445, 0.03241393465, -0.01779461695, -9.7704829425, 0.39541393465, -0.00179461695, -9.8404829425, -0.0074316112, -0.02842554105, -9.8977821788, 0.2105683888, 0.40857445895, -10.1407821788
7.03039908409, 0.0413870194, -0.08718647235, -9.7716793538, 0.4043870194, -0.07118647235, -9.8416793538, -0.01999392985, -0.07987122695, -9.9169247596, 0.19800607015, 0.35712877305, -10.1599247596
7.08060121536, 0.03959240245, -0.0471066938, -9.77825961595, 0.40259240245, -0.0311066938, -9.84825961595, 0.00273788485, -0.0218452789, -9.9049606466, 0.22073788485, 0.4151547211, -10.1479606466
7.13079118729, 0.0497618985, 0.00134796385, -9.77945602725, 0.4127618985, 0.01734796385, -9.84945602725, -0.0074316112, -0.0481663275, -9.9013714127, 0.2105683888, 0.3888336725, -10.1443714127
7.18102908134, 0.0377977855, 0.0055354034, -9.79381296285, 0.4007977855, 0.0215354034, -9.86381296285, -0.01760110725, -0.0409878597, -9.88402344885, 0.20039889275, 0.3960121403, -10.1270234488
7.23122000694, 0.0366013742, -0.03454437515, -9.78543808375, 0.3996013742, -0.01854437515, -9.85543808375, -0.00324417165, -0.0194524563, -9.902567824, 0.21475582835, 0.4175475437, -10.145567824
7.28185510635, 0.03480675725, -0.03574078645, -9.7908219346, 0.39780675725, -0.01974078645, -9.8608219346, -0.01879751855, -0.01167578285, -9.8642826624, 0.19920248145, 0.42532421715, -10.1072826624
7.33201622963, 0.0485654872, -0.04291925425, -9.77347397075, 0.4115654872, -0.02691925425, -9.84347397075, -0.01401187335, -0.0015062868, -9.9312816952, 0.20398812665, 0.4354937132, -10.1742816952
7.38217115402, 0.05155651545, -0.0889810893, -9.80099143065, 0.41455651545, -0.0729810893, -9.87099143065, -0.0122172564, -0.02005066195, -9.89598756185, 0.2057827436, 0.41694933805, -10.1389875618
7.43235516548, 0.03480675725, 0.1024447187, -9.7716793538, 0.39780675725, 0.1184447187, -9.8416793538, -0.00802981685, -0.0338093919, -9.89838038445, 0.20997018315, 0.4031906081, -10.1413803844
7.4825720787, 0.05155651545, -0.02975872995, -9.7704829425, 0.41455651545, -0.01375872995, -9.8404829425, -0.03315445415, -0.02244348455, -9.9193175822, 0.18484554585, 0.41455651545, -10.1623175822
7.53274917603, 0.043779842, -0.0375354034, -9.78065243855, 0.406779842, -0.0215354034, -9.85065243855, 0.00034506225, -0.06072864615, -9.91513014265, 0.21834506225, 0.37627135385, -10.1581301426
7.58291316032, 0.01686058775, -0.0459102825, -9.7824470555, 0.37986058775, -0.0299102825, -9.8524470555, -0.0050387886, -0.03440759755, -9.8953893562, 0.2129612114, 0.40259240245, -10.1383893562
7.63306808472, 0.0485654872, 0.00374078645, -9.7728757651, 0.4115654872, 0.01974078645, -9.8428757651, 0.02188046565, -0.02124707325, -9.8822288319, 0.23988046565, 0.41575292675, -10.1252288319
7.6832690239, 0.02882470075, -0.0423210486, -9.78543808375, 0.39182470075, -0.0263210486, -9.85543808375, -0.0134136677, -0.08585328345, -9.91752296525, 0.2045863323, 0.35114671655, -10.1605229653
7.7335062027, 0.02882470075, -0.0255712904, -9.7692865312, 0.39182470075, -0.0095712904, -9.8392865312, -0.00324417165, -0.0469699162, -9.91154090875, 0.21475582835, 0.3900300838, -10.1545409087
7.7836971283, 0.04078881375, -0.04291925425, -9.7668937086, 0.40378881375, -0.02691925425, -9.8368937086, -0.0110208451, -0.0637196744, -9.89957679575, 0.2069791549, 0.3732803256, -10.1425767957
7.83386802673, 0.0449762533, -0.05129413335, -9.76629550295, 0.4079762533, -0.03529413335, -9.83629550295, -0.02956522025, -0.01526501675, -9.93427272345, 0.18843477975, 0.42173498325, -10.1772727234
7.88407707214, 0.07309191885, 0.0186959277, -9.7728757651, 0.43609191885, 0.0346959277, -9.8428757651, -0.01640469595, -0.0290237467, -9.9085498805, 0.20159530405, 0.4079762533, -10.1515498805
7.934248209, 0.03600316855, -0.0506959277, -9.78783090635, 0.39900316855, -0.0346959277, -9.85783090635, -0.0349490711, -0.06192505745, -9.8882108884, 0.1830509289, 0.37507494255, -10.1312108884
7.98449516296, 0.04078881375, -0.06565106895, -9.76629550295, 0.40378881375, -0.04965106895, -9.83629550295, -0.026574192, -0.06790711395, -9.90077320705, 0.191425808, 0.36909288605, -10.143773207
8.03481721878, 0.02523546685, -0.03215155255, -9.76868832555, 0.38823546685, -0.01615155255, -9.83868832555, -0.0134136677, -0.0828622552, -9.89838038445, 0.2045863323, 0.3541377448, -10.1413803844
8.08504915237, 0.0461726646, -0.02138385085, -9.7788578216, 0.4091726646, -0.00538385085, -9.8488578216, -0.00444058295, -0.1163617716, -9.89359473925, 0.21355941705, 0.3206382284, -10.1365947392
8.13521909714, 0.03839599115, -0.0459102825, -9.7477511278, 0.40139599115, -0.0299102825, -9.8177511278, -0.0205921355, -0.04756812185, -9.8941929449, 0.1974078645, 0.38943187815, -10.1371929449
8.18540215492, 0.04796728155, -0.03454437515, -9.77586679335, 0.41096728155, -0.01854437515, -9.84586679335, -0.0038423773, -0.03919324275, -9.88163062625, 0.2141576227, 0.39780675725, -10.1246306262
8.23555803299, 0.02643187815, -0.0566779842, -9.7812506442, 0.38943187815, -0.0406779842, -9.8512506442, 0.0021396792, -0.0170596337, -9.890603711, 0.2201396792, 0.4199403663, -10.133603711
8.28588414192, 0.0294229064, -0.0530887503, -9.79381296285, 0.41216369285, -0.0095712904, -9.8356972973, -0.0134136677, -0.03201477495, -9.89359473925, 0.22313070745, 0.4055834307, -10.1377911506
8.33611607552, 0.05634216065, -0.0423210486, -9.7716793538, 0.41934216065, -0.0263210486, -9.8416793538, -0.0205921355, -0.0649160857, -9.90555885225, 0.1974078645, 0.3720839143, -10.1485588522
8.38630318642, 0.0425834307, -0.0686420972, -9.7716793538, 0.4055834307, -0.0526420972, -9.8416793538, -0.0110208451, -0.07269275915, -9.8965857675, 0.2069791549, 0.36430724085, -10.1395857675
8.4364771843, 0.019851616, -0.0291605243, -9.764500886, 0.382851616, -0.0131605243, -9.834500886, 0.00871994135, -0.08346046085, -9.85411316635, 0.22671994135, 0.35353953915, -10.0971131663
8.48682022095, 0.04677087025, 0.01809772205, -9.7752685877, 0.40977087025, 0.03409772205, -9.8452685877, -0.02836880895, 0.00268115275, -9.8690683076, 0.18963119105, 0.43968115275, -10.1120683076
8.53703808784, 0.0389941968, -0.06684748025, -9.79022372895, 0.4019941968, -0.05084748025, -9.86022372895, -0.01042263945, -0.06910352525, -9.87445215845, 0.20757736055, 0.36789647475, -10.1174521584
8.58729600906, 0.0509583098, -0.0327497582, -9.8015896363, 0.4139583098, -0.0167497582, -9.8715896363, -0.01042263945, -0.03440759755, -9.8941929449, 0.20757736055, 0.40259240245, -10.1371929449
8.63750100136, 0.03121752335, -0.02736590735, -9.76988473685, 0.39421752335, -0.01136590735, -9.83988473685, 0.00632711875, -0.0481663275, -9.91273732005, 0.22432711875, 0.3888336725, -10.15573732
8.68765306473, 0.0366013742, -0.05488336725, -9.7776614103, 0.3996013742, -0.03888336725, -9.8476614103, -0.00324417165, -0.05833582355, -9.9049606466, 0.21475582835, 0.37866417645, -10.1479606466
8.7378821373, 0.04437804765, 0.00493719775, -9.76749191425, 0.40737804765, 0.02093719775, -9.83749191425, -0.03076163155, -0.08106763825, -9.89598756185, 0.18723836845, 0.35593236175, -10.1389875618
8.78808021545, 0.02643187815, -0.03454437515, -9.7561260069, 0.38943187815, -0.01854437515, -9.8261260069, -0.03794009935, -0.0493627388, -9.9276924613, 0.18005990065, 0.3876372612, -10.1706924613
8.83823204041, 0.03121752335, 0.00972284295, -9.78902731765, 0.39421752335, 0.02572284295, -9.85902731765, -0.038538305, -0.066112497, -9.87923780365, 0.179461695, 0.370887503, -10.1222378037
8.88841104507, 0.02403905555, -0.0231784678, -9.7956075798, 0.406779842, -0.0430708068, -9.8440721764, -0.02119034115, -0.04756812185, -9.9061570579, 0.179461695, 0.37507494255, -10.1497552636
8.93872618675, 0.03600316855, 0.03484748025, -9.79142014025, 0.39900316855, 0.05084748025, -9.86142014025, -0.0098244338, -0.0613268518, -9.9049606466, 0.2081755662, 0.3756731482, -10.1479606466
8.98918008804, 0.05394933805, 0.11500703735, -9.7692865312, 0.41694933805, 0.13100703735, -9.8392865312, -0.02238675245, 0.0008865358, -9.90316602965, 0.19561324755, 0.4378865358, -10.1461660296
9.03951621056, 0.0342085516, 0.007928226, -9.7836434668, 0.38823546685, -0.0323031051, -9.83749191425, -0.0134136677, -0.02603271845, -9.902567824, 0.19920248145, 0.3876372612, -10.1545409087
9.08973622322, 0.04796728155, -0.00104485875, -9.7776614103, 0.41096728155, 0.01495514125, -9.8476614103, -0.00683340555, -0.0553447953, -9.88761268275, 0.21116659445, 0.3816552047, -10.1306126828
9.13994121552, 0.04557445895, -0.03813360905, -9.79979501935, 0.40857445895, -0.02213360905, -9.86979501935, -0.0062351999, -0.06551429135, -9.890603711, 0.2117648001, 0.37148570865, -10.133603711
9.19012308121, 0.0366013742, -0.00583050395, -9.7716793538, 0.3996013742, 0.01016949605, -9.8416793538, -0.00922622815, -0.04996094445, -9.9049606466, 0.20877377185, 0.38703905555, -10.1479606466
9.24027919769, 0.0294229064, -0.0351425808, -9.7740721764, 0.3924229064, -0.0191425808, -9.8440721764, -0.0181993129, -0.04637171055, -9.878639598, 0.1998006871, 0.39062828945, -10.121639598
9.29043722153, 0.03361034595, -0.0459102825, -9.78783090635, 0.39661034595, -0.0299102825, -9.85783090635, -0.01879751855, -0.0924335456, -9.91034449745, 0.19920248145, 0.3445664544, -10.1533444974
9.34075403214, 0.0366013742, -0.00583050395, -9.76390268035, 0.3996013742, 0.01016949605, -9.83390268035, -0.014610079, -0.02244348455, -9.90316602965, 0.203389921, 0.41455651545, -10.1461660296
9.39097619057, 0.04677087025, 0.01211566555, -9.79620578545, 0.40977087025, 0.02811566555, -9.86620578545, -0.02597598635, -0.08106763825, -9.88402344885, 0.1890329854, 0.4139583098, -10.1252288319
9.44135904312, 0.043779842, -0.0746241537, -9.76629550295, 0.406779842, -0.0586241537, -9.83629550295, -0.01401187335, -0.04876453315, -9.8762467754, 0.20398812665, 0.38823546685, -10.1192467754
9.49151110649, 0.04916369285, 0.01570489945, -9.7776614103, 0.41216369285, 0.03170489945, -9.8476614103, -0.0229849581, -0.02962195235, -9.9121391144, 0.1950150419, 0.40737804765, -10.1551391144
9.54167413712, 0.03600316855, -0.0195892339, -9.7776614103, 0.39900316855, -0.0035892339, -9.8476614103, -0.026574192, 0.0020829471, -9.88163062625, 0.191425808, 0.4390829471, -10.1246306262
9.59182620049, 0.0246372612, -0.0734277424, -9.8039824589, 0.3876372612, -0.0574277424, -9.8739824589, -0.0122172564, -0.02244348455, -9.8798360093, 0.2057827436, 0.41455651545, -10.1228360093
9.6419711113, 0.0449762533, -0.0267677017, -9.76150985775, 0.4079762533, -0.0107677017, -9.83150985775, -0.0098244338, -0.0469699162, -9.90196961835, 0.2081755662, 0.3900300838, -10.1449696184
9.69214606285, 0.0473690759, -0.075820565, -9.7872327007, 0.4103690759, -0.059820565, -9.8572327007, 0.00154147355, -0.04038965405, -9.8989785901, 0.21954147355, 0.39661034595, -10.1419785901
9.74233007431, 0.05634216065, -0.01779461695, -9.7800542329, 0.41934216065, -0.00179461695, -9.8500542329, -0.0062351999, -0.06192505745, -9.8989785901, 0.2117648001, 0.37507494255, -10.1419785901
9.79250407219, 0.055743955, -0.0686420972, -9.78065243855, 0.418743955, -0.0526420972, -9.85065243855, 0.0057289131, -0.00330090375, -9.9241032274, 0.2237289131, 0.43369909625, -10.1671032274
9.84270215034, 0.0330121403, -0.05727618985, -9.78304526115, 0.3960121403, -0.04127618985, -9.85304526115, -0.02597598635, -0.08944251735, -9.902567824, 0.19202401365, 0.34755748265, -10.145567824
9.89287400246, 0.03121752335, -0.0447138712, -9.79261655155, 0.39421752335, -0.0287138712, -9.86261655155, -0.0181993129, -0.0732909648, -9.92111219915, 0.1998006871, 0.3637090352, -10.1641121991
9.94308805466, 0.0354049629, -0.0267677017, -9.800393225, 0.3984049629, -0.0107677017, -9.870393225, -0.0038423773, -0.04038965405, -9.8941929449, 0.2141576227, 0.39661034595, -10.1371929449
9.99324822426, 0.0342085516, -0.04770489945, -9.76868832555, 0.3972085516, -0.03170489945, -9.83868832555, -0.03554727675, -0.06790711395, -9.89718397315, 0.18245272325, 0.36909288605, -10.1401839732
10.0434141159, 0.0246372612, -0.02497308475, -9.76868832555, 0.4211367776, -0.01615155255, -9.85663449505, -0.026574192, -0.0326129806, -9.92709425565, 0.20039889275, 0.40019957985, -10.1587283483
10.0935611725, 0.0401906081, 0.01091925425, -9.7680901199, 0.4031906081, 0.02691925425, -9.8380901199, -0.01281546205, 0.005672181, -9.8929965336, 0.20518453795, 0.442672181, -10.1359965336
10.1437101364, 0.03839599115, -0.039928226, -9.7824470555, 0.40139599115, -0.023928226, -9.8524470555, -0.0205921355, -0.04996094445, -9.9336745178, 0.1974078645, 0.38703905555, -10.1766745178
10.193898201, 0.0461726646, -0.0471066938, -9.7668937086, 0.4091726646, -0.0311066938, -9.8368937086, -0.03674368805, -0.0170596337, -9.8929965336, 0.18125631195, 0.4199403663, -10.1359965336
10.2440421581, 0.03241393465, -0.0004466531, -9.80577707585, 0.39541393465, 0.0155533469, -9.87577707585, -0.01161905075, -0.03201477495, -9.90316602965, 0.20638094925, 0.40498522505, -10.1461660296
10.2942352295, 0.0473690759, -0.0674456859, -9.76031344645, 0.4103690759, -0.0514456859, -9.83031344645, -0.01640469595, -0.05355017835, -9.90795167485, 0.20159530405, 0.38344982165, -10.1509516748
10.3443870544, 0.03839599115, -0.0339461695, -9.77347397075, 0.40139599115, -0.0179461695, -9.84347397075, -0.01640469595, -0.0768801987, -9.91513014265, 0.20159530405, 0.3601198013, -10.1581301426
10.3945372105, 0.0389941968, -0.09675776275, -9.7609116521, 0.4019941968, -0.08075776275, -9.8309116521, -0.01879751855, -0.0373986258, -9.9372637517, 0.19920248145, 0.3996013742, -10.1802637517
10.4447181225, 0.0425834307, -0.0291605243, -9.776464999, 0.4055834307, -0.0131605243, -9.846464999, 0.02307687695, -0.03440759755, -9.8846216545, 0.24107687695, 0.40259240245, -10.1276216545
10.4949531555, 0.055743955, 0.0115174599, -9.7597152408, 0.418743955, 0.0275174599, -9.8297152408, -0.0050387886, -0.07807661, -9.902567824, 0.2129612114, 0.35892339, -10.145567824
10.5451772213, 0.05155651545, -0.01540179435, -9.7609116521, 0.41455651545, 0.00059820565, -9.8309116521, -0.03435086545, -0.0194524563, -9.89598756185, 0.18364913455, 0.4175475437, -10.1389875618
10.5954391956, 0.03839599115, -0.03334796385, -9.7836434668, 0.40139599115, -0.01734796385, -9.8536434668, -0.02956522025, -0.03919324275, -9.91513014265, 0.18843477975, 0.39780675725, -10.1581301426
10.6456282139, 0.0485654872, 0.00493719775, -9.77945602725, 0.4115654872, 0.02093719775, -9.84945602725, -0.0170029016, -0.01526501675, -9.8965857675, 0.2009970984, 0.42173498325, -10.1395857675
10.6957950592, 0.03959240245, -0.02616949605, -9.7908219346, 0.40259240245, -0.01016949605, -9.8608219346, -0.01879751855, -0.0565412066, -9.89000550535, 0.19920248145, 0.3804587934, -10.1330055054
10.7459490299, 0.04198522505, -0.00941973785, -9.78663449505, 0.40498522505, 0.00658026215, -9.85663449505, -0.0062351999, -0.05833582355, -9.9085498805, 0.2117648001, 0.37866417645, -10.1515498805
10.796143055, 0.03959240245, -0.0889810893, -9.77706320465, 0.40259240245, -0.0729810893, -9.84706320465, 0.01350558655, -0.01885425065, -9.8953893562, 0.23150558655, 0.41814574935, -10.1383893562
10.8462901115, 0.0425834307, -0.03574078645, -9.76629550295, 0.4055834307, -0.01974078645, -9.83629550295, -0.01281546205, -0.06551429135, -9.8810324206, 0.20518453795, 0.37148570865, -10.1240324206
10.8964672089, 0.0401906081, -0.06565106895, -9.7776614103, 0.4031906081, -0.04965106895, -9.8476614103, -0.01760110725, -0.06551429135, -9.9205139935, 0.20039889275, 0.37148570865, -10.1635139935
10.9466450214, 0.0258336725, -0.0506959277, -9.78304526115, 0.3888336725, -0.0346959277, -9.85304526115, -0.0241813694, -0.0218452789, -9.9312816952, 0.1938186306, 0.4151547211, -10.1742816952
10.9968202114, 0.0521547211, -0.04172284295, -9.77825961595, 0.4151547211, -0.02572284295, -9.84825961595, -0.038538305, -0.05594300095, -9.9169247596, 0.179461695, 0.38105699905, -10.1599247596
11.0470480919, 0.05275292675, -0.0267677017, -9.78424167245, 0.41575292675, -0.0107677017, -9.85424167245, -0.00563699425, -0.0373986258, -9.8846216545, 0.21236300575, 0.3996013742, -10.1276216545
11.0972681046, 0.02882470075, -0.05009772205, -9.77227755945, 0.39182470075, -0.03409772205, -9.84227755945, 0.0021396792, -0.0373986258, -9.91154090875, 0.2201396792, 0.3996013742, -10.1545409087
11.1474711895, 0.0246372612, -0.04890131075, -9.7633044747, 0.3876372612, -0.03290131075, -9.8333044747, -0.03794009935, -0.0756837874, -9.92350502175, 0.18005990065, 0.3613162126, -10.1665050217
11.1976621151, 0.0461726646, -0.0841954441, -9.79740219675, 0.4091726646, -0.0681954441, -9.86740219675, -0.03913651065, -0.04756812185, -9.9013714127, 0.17886348935, 0.38943187815, -10.1443714127
11.247811079, 0.04437804765, -0.0423210486, -9.76031344645, 0.40737804765, -0.0263210486, -9.83031344645, -0.0181993129, -0.01526501675, -9.8882108884, 0.1998006871, 0.42173498325, -10.1312108884
11.2982401848, 0.03241393465, -0.0626600407, -9.77586679335, 0.39541393465, -0.0466600407, -9.84586679335, -0.0110208451, -0.04038965405, -9.89120191665, 0.2069791549, 0.39661034595, -10.1342019166
11.3499112129, 0.04916369285, -0.0722313311, -9.78663449505, 0.41216369285, -0.0562313311, -9.85663449505, -0.0193957242, -0.01646142805, -9.89359473925, 0.1986042758, 0.42053857195, -10.1365947392
11.4001510143, 0.0330121403, -0.0662492746, -9.7824470555, 0.3960121403, -0.0502492746, -9.8524470555, -0.0205921355, -0.0601304405, -9.89598756185, 0.1974078645, 0.3768695595, -10.1389875618
11.4503350258, 0.0246372612, -0.0554815729, -9.7812506442, 0.3876372612, -0.0394815729, -9.8512506442, -0.0002531434, -0.04996094445, -9.88641627145, 0.2177468566, 0.38703905555, -10.1294162714
11.5005152225, 0.06112780585, -0.0315533469, -9.7597152408, 0.42412780585, -0.0155533469, -9.8297152408, -0.0134136677, -0.042184271, -9.88641627145, 0.2045863323, 0.394815729, -10.1294162714
11.550727129, 0.0282264951, -0.0387318147, -9.78424167245, 0.3912264951, -0.0227318147, -9.85424167245, -0.02119034115, -0.03321118625, -9.89838038445, 0.19680965885, 0.40378881375, -10.1413803844
11.601211071, 0.04916369285, -0.0303569356, -9.7908219346, 0.40019957985, -0.04007977855, -9.81715292215, -0.01281546205, -0.0409878597, -9.90555885225, 0.20518453795, 0.3960121403, -10.1485588522
11.6518161297, 0.05394933805, -0.0195892339, -9.7836434668, 0.41694933805, -0.0035892339, -9.8536434668, -0.0122172564, -0.01885425065, -9.88402344885, 0.2057827436, 0.41814574935, -10.1270234488
11.7019970417, 0.03480675725, -0.0494995164, -9.77108114815, 0.39780675725, -0.0334995164, -9.84108114815, -0.0181993129, 0.0032793584, -9.9085498805, 0.1998006871, 0.4402793584, -10.1515498805
11.7521731853, 0.0497618985, -0.05607977855, -9.8039824589, 0.4127618985, -0.04007977855, -9.8739824589, -0.02238675245, -0.0637196744, -9.8810324206, 0.19561324755, 0.3732803256, -10.1240324206
11.8023490906, 0.0294229064, -0.05129413335, -9.77108114815, 0.3924229064, -0.03529413335, -9.84108114815, -0.01401187335, -0.0433806823, -9.93427272345, 0.20398812665, 0.3936193177, -10.1772727234
11.8525261879, 0.055743955, -0.0506959277, -9.764500886, 0.418743955, -0.0346959277, -9.834500886, -0.0110208451, 0.0152434714, -9.9133355257, 0.2069791549, 0.4522434714, -10.1563355257
11.9027662277, 0.0665116567, -0.02497308475, -9.79381296285, 0.4295116567, -0.00897308475, -9.86381296285, -0.00922622815, -0.05115735575, -9.92649605, 0.20877377185, 0.38584264425, -10.16949605
11.9529240131, 0.04437804765, -0.01779461695, -9.764500886, 0.40737804765, -0.00179461695, -9.834500886, -0.0038423773, 0.00387756405, -9.92649605, 0.2141576227, 0.44087756405, -10.16949605
12.003111124, 0.0389941968, -0.05966901245, -9.7908219346, 0.4019941968, -0.04366901245, -9.8608219346, -0.02717239765, -0.054148384, -9.8929965336, 0.19082760235, 0.382851616, -10.1359965336
12.0532870293, 0.03719957985, -0.0171964113, -9.80458066455, 0.40019957985, -0.0011964113, -9.87458066455, -0.00802981685, -0.0278273354, -9.8965857675, 0.20997018315, 0.4091726646, -10.1395857675
12.1034810543, 0.04437804765, -0.0554815729, -9.7740721764, 0.40737804765, -0.0394815729, -9.8440721764, -0.0301634259, -0.06671070265, -9.9492278647, 0.1878365741, 0.37028929735, -10.1922278647
12.1536281109, 0.05753857195, -0.0746241537, -9.78424167245, 0.42053857195, -0.0586241537, -9.85424167245, -0.0301634259, -0.02722912975, -9.8977821788, 0.1878365741, 0.40977087025, -10.1407821788
12.2037990093, 0.0569403663, -0.0195892339, -9.78424167245, 0.4199403663, -0.0035892339, -9.85424167245, -0.00085134905, -0.0613268518, -9.89000550535, 0.21714865095, 0.3756731482, -10.1330055054
12.253991127, 0.05155651545, 0.0378385085, -9.8075716928, 0.41455651545, 0.0538385085, -9.8775716928, 0.00871994135, -0.0134703998, -9.8977821788, 0.22671994135, 0.4235296002, -10.1407821788
12.304238081, 0.0150659708, -0.0387318147, -9.74715292215, 0.3780659708, -0.0227318147, -9.81715292215, 0.00632711875, 0.01225244315, -9.8953893562, 0.22432711875, 0.44925244315, -10.1383893562
12.3544561863, 0.04318163635, -0.04291925425, -9.764500886, 0.40618163635, -0.02691925425, -9.834500886, -0.01520828465, -0.0625232631, -9.8953893562, 0.20279171535, 0.3744767369, -10.1383893562
12.4046280384, 0.02523546685, -0.03933002035, -9.77586679335, 0.38823546685, -0.02333002035, -9.84586679335, -0.01999392985, -0.07508558175, -9.8750503641, 0.19800607015, 0.36191441825, -10.1180503641
12.4549341202, 0.0210480273, -0.04650848815, -9.7740721764, 0.3840480273, -0.03050848815, -9.8440721764, -0.0253777807, -0.01167578285, -9.92350502175, 0.1926222193, 0.42532421715, -10.1665050217
12.5052092075, 0.0354049629, -0.06445465765, -9.8171429832, 0.3984049629, -0.04845465765, -9.8871429832, -0.0002531434, -0.06790711395, -9.890603711, 0.2177468566, 0.36909288605, -10.133603711
12.5554141998, 0.05993139455, -0.04052643165, -9.79022372895, 0.40139599115, -0.02093719775, -9.8488578216, -0.03195804285, -0.0397914484, -9.87684498105, 0.18604195715, 0.3972085516, -10.119844981
12.605656147, 0.0366013742, 0.00852643165, -9.74057266, 0.3996013742, 0.02452643165, -9.81057266, -0.038538305, -0.05713941225, -9.9241032274, 0.179461695, 0.37986058775, -10.1671032274
12.6558580399, 0.0461726646, -0.08359723845, -9.7621080634, 0.4091726646, -0.06759723845, -9.8321080634, -0.0122172564, -0.0290237467, -9.89957679575, 0.2057827436, 0.4079762533, -10.1425767957
12.706081152, 0.0485654872, -0.16136397295, -9.8051788702, 0.4115654872, -0.14536397295, -9.8751788702, -0.0110208451, -0.0804694326, -9.9013714127, 0.2069791549, 0.3565305674, -10.1443714127
12.7562811375, 0.04796728155, -0.05249054465, -9.81056272105, 0.41096728155, -0.03649054465, -9.88056272105, -0.0409311276, -0.0373986258, -9.9121391144, 0.1770688724, 0.3996013742, -10.1551391144
12.8064980507, 0.03600316855, -0.0351425808, -9.7812506442, 0.39900316855, -0.0191425808, -9.8512506442, -0.00922622815, 0.00627038665, -9.9217104048, 0.20877377185, 0.44327038665, -10.1647104048
12.8566470146, 0.04078881375, -0.0542851616, -9.7872327007, 0.40378881375, -0.0382851616, -9.8572327007, -0.014610079, -0.08824610605, -9.91632655395, 0.203389921, 0.34875389395, -10.1593265539
12.9068801403, 0.0569403663, -0.03933002035, -9.77108114815, 0.4163511324, -0.0669990328, -9.85783090635, -0.03195804285, -0.04637171055, -9.8810324206, 0.2093719775, 0.35952159565, -10.1174521584
12.9571101665, 0.0258336725, -0.01300897175, -9.7788578216, 0.3888336725, 0.00299102825, -9.8488578216, -0.03076163155, -0.0517555614, -9.90675526355, 0.18723836845, 0.3852444386, -10.1497552636
13.0073480606, 0.0629224228, -0.03095514125, -9.7860362894, 0.4259224228, -0.01495514125, -9.8560362894, -0.01760110725, -0.03440759755, -9.90196961835, 0.20039889275, 0.40259240245, -10.1449696184
13.0575380325, 0.05036010415, -0.0435174599, -9.76629550295, 0.41336010415, -0.0275174599, -9.83629550295, -0.0050387886, -0.02363989585, -9.8726575415, 0.2129612114, 0.41336010415, -10.1156575415
13.1077480316, 0.031815729, -0.0435174599, -9.7932147572, 0.394815729, -0.0275174599, -9.8632147572, -0.03913651065, -0.08226404955, -9.89359473925, 0.17886348935, 0.35473595045, -10.1365947392
13.1579110622, 0.0413870194, -0.03334796385, -9.7752685877, 0.4043870194, -0.01734796385, -9.8452685877, -0.0170029016, -0.0493627388, -9.8977821788, 0.2009970984, 0.3876372612, -10.1407821788
13.2081770897, 0.0354049629, -0.07282953675, -9.7489475391, 0.3984049629, -0.05682953675, -9.8189475391, -0.01042263945, -0.06072864615, -9.8870144771, 0.20757736055, 0.37627135385, -10.1300144771
13.2583601475, 0.0234408499, -0.02138385085, -9.7848398781, 0.4175475437, -0.0406779842, -9.85184884985, -0.02597598635, -0.0362022145, -9.91871937655, 0.2117648001, 0.38464623295, -10.1377911506
13.3089380264, 0.031815729, -0.0494995164, -9.7668937086, 0.394815729, -0.0334995164, -9.8368937086, -0.0110208451, -0.04517529925, -9.88282703755, 0.2069791549, 0.39182470075, -10.1258270375
13.3591170311, 0.0342085516, -0.03095514125, -9.7800542329, 0.3972085516, -0.01495514125, -9.8500542329, 0.00034506225, -0.05115735575, -9.8941929449, 0.21834506225, 0.38584264425, -10.1371929449
13.4093170166, 0.0509583098, -0.0542851616, -9.76988473685, 0.4139583098, -0.0382851616, -9.83988473685, -0.00204776035, -0.06431788005, -9.8953893562, 0.21595223965, 0.37268211995, -10.1383893562
13.4595072269, 0.0401906081, 0.11979268255, -9.7824470555, 0.4031906081, 0.13579268255, -9.8524470555, -0.0170029016, 0.0068685923, -9.92709425565, 0.2009970984, 0.4438685923, -10.1700942556
13.5096731186, 0.05394933805, -0.05607977855, -9.78184884985, 0.41694933805, -0.04007977855, -9.85184884985, -0.0229849581, -0.03081836365, -9.8965857675, 0.1950150419, 0.40618163635, -10.1395857675
13.5598511696, 0.0246372612, -0.0542851616, -9.7668937086, 0.3876372612, -0.0382851616, -9.8368937086, -0.0074316112, -0.0134703998, -9.914531937, 0.2105683888, 0.4235296002, -10.157531937
13.609978199, 0.0425834307, -0.0375354034, -9.7872327007, 0.4055834307, -0.0215354034, -9.8572327007, -0.01042263945, -0.01526501675, -9.8965857675, 0.20757736055, 0.42173498325, -10.1395857675
13.6602702141, 0.04318163635, -0.03813360905, -9.7908219346, 0.40618163635, -0.02213360905, -9.8608219346, -0.01520828465, -0.018256045, -9.9157283483, 0.20279171535, 0.418743955, -10.1587283483
13.7105181217, 0.04198522505, -0.07761518195, -9.7860362894, 0.40498522505, -0.06161518195, -9.8560362894, -0.01760110725, -0.0206488676, -9.9217104048, 0.20039889275, 0.4163511324, -10.1647104048
13.7607350349, 0.0270300838, -0.0267677017, -9.7896255233, 0.3900300838, -0.0107677017, -9.8596255233, 0.00034506225, -0.06790711395, -9.90795167485, 0.21834506225, 0.36909288605, -10.1509516748
13.8109111786, 0.03121752335, -0.0961595571, -9.7716793538, 0.39421752335, -0.0801595571, -9.8416793538, -0.02836880895, -0.06312146875, -9.87445215845, 0.18963119105, 0.37387853125, -10.1174521584
13.8610651493, 0.0282264951, -0.08479364975, -9.76150985775, 0.3912264951, -0.06879364975, -9.83150985775, -0.0205921355, -0.0625232631, -9.9109427031, 0.1974078645, 0.3744767369, -10.1539427031
13.911247015, 0.03241393465, -0.063856452, -9.7944111685, 0.39541393465, -0.047856452, -9.8644111685, -0.0170029016, -0.0266309241, -9.9133355257, 0.2009970984, 0.4103690759, -10.1563355257
13.9614191055, 0.0377977855, 0.0091246373, -9.77586679335, 0.4007977855, 0.0251246373, -9.84586679335, -0.00444058295, -0.02603271845, -9.90436244095, 0.21355941705, 0.41096728155, -10.1473624409
14.011631012, 0.03121752335, -0.0207856452, -9.7776614103, 0.39421752335, -0.0047856452, -9.8476614103, -0.00802981685, -0.0469699162, -9.87445215845, 0.20997018315, 0.3900300838, -10.1174521584
14.0619430542, 0.04198522505, -0.04172284295, -9.78543808375, 0.40498522505, -0.02572284295, -9.85543808375, -0.01879751855, -0.0708981422, -9.8977821788, 0.19920248145, 0.3661018578, -10.1407821788
14.112154007, 0.04916369285, -0.02138385085, -9.79142014025, 0.41216369285, -0.00538385085, -9.86142014025, -0.00085134905, -0.05953223485, -9.9097462918, 0.21714865095, 0.37746776515, -10.1527462918
14.1623241901, 0.0330121403, -0.00583050395, -9.7668937086, 0.3960121403, 0.01016949605, -9.8368937086, -0.0217885468, -0.05713941225, -9.91752296525, 0.1962114532, 0.37986058775, -10.1605229653
14.2125952244, 0.0377977855, -0.02856231865, -9.7812506442, 0.4007977855, -0.01256231865, -9.8512506442, -0.014610079, -0.0266309241, -9.89000550535, 0.203389921, 0.4103690759, -10.1330055054
14.2627711296, 0.03121752335, -0.09436494015, -9.76988473685, 0.39421752335, -0.07836494015, -9.83988473685, -0.0241813694, -0.05953223485, -9.9169247596, 0.1938186306, 0.37746776515, -10.1599247596
14.3129720688, 0.03002111205, -0.04531207685, -9.75911703515, 0.39302111205, -0.02931207685, -9.82911703515, -0.0241813694, -0.04158606535, -9.91273732005, 0.1938186306, 0.39541393465, -10.15573732
14.3631260395, 0.0485654872, -0.0411246373, -9.79620578545, 0.4115654872, -0.0251246373, -9.86620578545, -0.0110208451, -0.04876453315, -9.91034449745, 0.2069791549, 0.38823546685, -10.1533444974
14.4132962227, 0.06112780585, -0.0734277424, -9.78783090635, 0.42412780585, -0.0574277424, -9.85783090635, -0.0217885468, -0.03321118625, -9.89957679575, 0.1962114532, 0.40378881375, -10.1425767957
14.4635021687, 0.0234408499, -0.0494995164, -9.78663449505, 0.3864408499, -0.0334995164, -9.85663449505, -0.01161905075, -0.030220158, -9.90914808615, 0.20638094925, 0.406779842, -10.1521480861
14.5137181282, 0.0545475437, 0.0019461695, -9.76629550295, 0.4175475437, 0.0179461695, -9.83629550295, -0.0253777807, -0.0218452789, -9.92649605, 0.1926222193, 0.4151547211, -10.16949605
14.563970089, 0.04557445895, -0.02018743955, -9.764500886, 0.40857445895, -0.00418743955, -9.834500886, -0.00683340555, -0.030220158, -9.91513014265, 0.21116659445, 0.406779842, -10.1581301426
14.6142380238, 0.05036010415, -0.0459102825, -9.7621080634, 0.41336010415, -0.0299102825, -9.8321080634, -0.0217885468, -0.06431788005, -9.9229068161, 0.1962114532, 0.37268211995, -10.1659068161
14.6644320488, 0.0330121403, -0.04531207685, -9.8099645154, 0.3960121403, -0.02931207685, -9.8799645154, -0.03315445415, -0.030220158, -9.9157283483, 0.18484554585, 0.406779842, -10.1587283483
14.7146031857, 0.02762828945, -0.0650528633, -9.77347397075, 0.39062828945, -0.0490528633, -9.84347397075, -0.02119034115, -0.04038965405, -9.8989785901, 0.19680965885, 0.39661034595, -10.1419785901
14.7647681236, 0.03959240245, -0.02497308475, -9.7692865312, 0.40259240245, -0.00897308475, -9.8392865312, -0.0241813694, -0.04038965405, -9.91273732005, 0.1938186306, 0.39661034595, -10.15573732
14.8149881363, 0.0473690759, -0.05607977855, -9.76509909165, 0.4103690759, -0.04007977855, -9.83509909165, -0.00085134905, -0.0409878597, -9.902567824, 0.21714865095, 0.3960121403, -10.145567824
14.8651850224, 0.0210480273, -0.06086542375, -9.8183393945, 0.3840480273, -0.04486542375, -9.8883393945, -0.03195804285, -0.04278247665, -9.91871937655, 0.18604195715, 0.39421752335, -10.1617193765
14.9154620171, 0.0736901245, -0.03095514125, -9.7752685877, 0.4366901245, -0.01495514125, -9.8452685877, -0.01640469595, -0.03680042015, -9.9133355257, 0.20159530405, 0.40019957985, -10.1563355257
14.9656112194, 0.0497618985, -0.0339461695, -9.78304526115, 0.4127618985, -0.0179461695, -9.85304526115, 0.00991635265, -0.0385950371, -9.890603711, 0.22791635265, 0.3984049629, -10.133603711
15.0157670975, 0.019851616, -0.0698385085, -9.78065243855, 0.382851616, -0.0538385085, -9.85065243855, -0.03435086545, -0.0314165693, -9.90436244095, 0.18364913455, 0.4055834307, -10.1473624409
15.0659270287, 0.02403905555, -0.0375354034, -9.75433138995, 0.38703905555, -0.0215354034, -9.82433138995, -0.01520828465, -0.0804694326, -9.89718397315, 0.20279171535, 0.3565305674, -10.1401839732
15.1161341667, 0.0593331889, -0.03454437515, -9.78543808375, 0.4223331889, -0.01854437515, -9.85543808375, -0.03913651065, -0.0481663275, -9.88880909405, 0.17886348935, 0.3888336725, -10.131809094
15.1663281918, 0.04318163635, 0.1120160091, -9.76749191425, 0.40618163635, 0.1280160091, -9.83749191425, -0.0158064903, -0.00090808115, -9.9061570579, 0.2021935097, 0.43609191885, -10.1491570579
15.2164931297, 0.0509583098, -0.07163312545, -9.77586679335, 0.4139583098, -0.05563312545, -9.84586679335, -0.02119034115, -0.07388917045, -9.9360673404, 0.19680965885, 0.36311082955, -10.1790673404
15.26673913, 0.03600316855, -0.03813360905, -9.76509909165, 0.39900316855, -0.02213360905, -9.83509909165, -0.02119034115, -0.05235376705, -9.87684498105, 0.19680965885, 0.38464623295, -10.119844981
15.3170061111, 0.0425834307, -0.0267677017, -9.77467038205, 0.4055834307, -0.0107677017, -9.84467038205, -0.0050387886, -0.05594300095, -9.8762467754, 0.2129612114, 0.38105699905, -10.1192467754
15.3674280643, 0.0449762533, -0.0650528633, -9.8063752815, 0.4079762533, -0.0490528633, -9.8763752815, -0.0289670146, -0.0445770936, -9.90316602965, 0.1890329854, 0.3924229064, -10.1461660296
15.417591095, 0.0330121403, -0.05727618985, -9.7537331843, 0.3960121403, -0.04127618985, -9.8237331843, -0.0241813694, -0.0840586665, -9.9109427031, 0.1938186306, 0.3529413335, -10.1539427031
15.4677460194, 0.031815729, -0.01061614915, -9.79261655155, 0.394815729, 0.00538385085, -9.86261655155, -0.02119034115, -0.0385950371, -9.91632655395, 0.19680965885, 0.3984049629, -10.1593265539
15.5179312229, 0.0569403663, -0.04411566555, -9.77227755945, 0.4199403663, -0.02811566555, -9.84227755945, -0.01520828465, -0.03201477495, -9.89598756185, 0.20279171535, 0.40498522505, -10.1389875618
15.5680789948, 0.02284264425, -0.0506959277, -9.7968039911, 0.38584264425, -0.0346959277, -9.8668039911, 0.0141037922, -0.05953223485, -9.88163062625, 0.2321037922, 0.37746776515, -10.1246306262
15.6183011532, 0.0461726646, -0.08000800455, -9.7692865312, 0.4091726646, -0.06400800455, -9.8392865312, -0.03674368805, -0.00210449245, -9.9061570579, 0.18125631195, 0.43489550755, -10.1491570579
15.6685271263, 0.04318163635, -0.0375354034, -9.7716793538, 0.40618163635, -0.0215354034, -9.8416793538, -0.0050387886, -0.0517555614, -9.9061570579, 0.2129612114, 0.3852444386, -10.1491570579
15.7187850475, 0.0389941968, -0.0542851616, -9.7728757651, 0.4019941968, -0.0382851616, -9.8428757651, -0.01879751855, -0.03201477495, -9.87684498105, 0.19920248145, 0.40498522505, -10.119844981
15.7689380646, 0.0569403663, -0.03693719775, -9.7896255233, 0.4199403663, -0.02093719775, -9.8596255233, -0.01161905075, -0.03680042015, -9.9001750014, 0.20638094925, 0.40019957985, -10.1431750014
15.819175005, 0.03121752335, -0.0411246373, -9.76509909165, 0.39421752335, -0.0251246373, -9.83509909165, -0.0122172564, -0.08226404955, -9.89479115055, 0.2057827436, 0.35473595045, -10.1377911506
15.8693652153, 0.055743955, -0.03334796385, -9.76390268035, 0.418743955, -0.01734796385, -9.83390268035, -0.00563699425, -0.08465687215, -9.93187990085, 0.21236300575, 0.35234312785, -10.1748799008
15.9195380211, 0.0354049629, -0.0327497582, -9.7740721764, 0.3984049629, -0.0167497582, -9.8440721764, -0.038538305, -0.03919324275, -9.9001750014, 0.179461695, 0.39780675725, -10.1431750014
15.9697442055, 0.0593331889, -0.0327497582, -9.7692865312, 0.4223331889, -0.0167497582, -9.8392865312, -0.0158064903, -0.08585328345, -9.9121391144, 0.2021935097, 0.35114671655, -10.1551391144
16.0199370384, 0.04198522505, -0.0339461695, -9.7716793538, 0.40498522505, -0.0179461695, -9.8416793538, -0.0217885468, -0.0912371343, -9.9288888726, 0.1962114532, 0.3457628657, -10.1718888726
16.0702102184, 0.05036010415, -0.05488336725, -9.77467038205, 0.41336010415, -0.03888336725, -9.84467038205, -0.002645966, -0.0565412066, -9.8953893562, 0.215354034, 0.3804587934, -10.1383893562
16.1204180717, 0.0533511324, -0.06445465765, -9.788429112, 0.4163511324, -0.04845465765, -9.858429112, -0.0038423773, -0.0218452789, -9.8678718963, 0.2141576227, 0.4151547211, -10.1108718963
16.170623064, 0.05036010415, -0.0806062102, -9.78902731765, 0.41336010415, -0.0646062102, -9.85902731765, 0.00393429615, -0.0756837874, -9.9097462918, 0.22193429615, 0.3613162126, -10.1527462918
16.2208020687, 0.0294229064, -0.0291605243, -9.79022372895, 0.3924229064, -0.0131605243, -9.86022372895, -0.02238675245, -0.0050955207, -9.91393373135, 0.19561324755, 0.4319044793, -10.1569337313
16.2710051537, 0.0270300838, -0.04411566555, -9.77706320465, 0.3900300838, -0.02811566555, -9.84706320465, -0.0289670146, -0.03081836365, -9.914531937, 0.1890329854, 0.40618163635, -10.157531937
16.3211970329, 0.06591345105, -0.0219820565, -9.76150985775, 0.42891345105, -0.0059820565, -9.83150985775, -0.02717239765, -0.0457735049, -9.91393373135, 0.19082760235, 0.3912264951, -10.1569337313
16.3713710308, 0.04198522505, -0.0614636294, -9.74954574475, 0.40498522505, -0.0454636294, -9.81954574475, -0.0241813694, -0.0697017309, -9.9097462918, 0.1938186306, 0.3672982691, -10.1527462918
16.4215781689, 0.0413870194, -0.0375354034, -9.7788578216, 0.4043870194, -0.0215354034, -9.8488578216, -0.02836880895, -0.0242381015, -9.89239832795, 0.18963119105, 0.4127618985, -10.1353983279
16.471750021, 0.03241393465, -0.01899102825, -9.75911703515, 0.39541393465, -0.00299102825, -9.82911703515, -0.02358316375, -0.0864514891, -9.9037642353, 0.19441683625, 0.3505485109, -10.1467642353
16.5219171047, 0.04677087025, -0.00104485875, -9.78783090635, 0.40977087025, 0.01495514125, -9.85783090635, -0.0122172564, -0.03919324275, -9.86966651325, 0.2057827436, 0.39780675725, -10.1126665132
16.5720930099, 0.04198522505, -0.02497308475, -9.7692865312, 0.40498522505, -0.00897308475, -9.8392865312, -0.00802981685, -0.0529519727, -9.8953893562, 0.20997018315, 0.3840480273, -10.1383893562
16.6222631931, 0.04677087025, -0.027964113, -9.7956075798, 0.40977087025, -0.011964113, -9.8656075798, -0.0110208451, -0.0266309241, -9.9085498805, 0.2069791549, 0.4103690759, -10.1515498805
16.6724181175, 0.05394933805, -0.02736590735, -9.7728757651, 0.41694933805, -0.01136590735, -9.8428757651, -0.0098244338, -0.03680042015, -9.91154090875, 0.2081755662, 0.40019957985, -10.1545409087
16.7226600647, 0.0461726646, -0.0255712904, -9.7501439504, 0.4091726646, -0.0095712904, -9.8201439504, 0.01948764305, -0.0924335456, -9.86009522285, 0.23748764305, 0.3445664544, -10.1030952228
16.7728481293, 0.0497618985, -0.0004466531, -9.76988473685, 0.4127618985, 0.0155533469, -9.83988473685, -0.0217885468, -0.03081836365, -9.9013714127, 0.1962114532, 0.40618163635, -10.1443714127
16.8232440948, 0.02882470075, -0.0435174599, -9.76749191425, 0.39182470075, -0.0275174599, -9.83749191425, -0.02597598635, -0.08106763825, -9.9133355257, 0.19202401365, 0.35593236175, -10.1563355257
16.8734390736, 0.0461726646, -0.0004466531, -9.7980004024, 0.4091726646, 0.0155533469, -9.8680004024, -0.0229849581, -0.0445770936, -9.90914808615, 0.1950150419, 0.3924229064, -10.1521480861
16.9236991405, 0.03480675725, -0.0435174599, -9.80577707585, 0.39780675725, -0.0275174599, -9.87577707585, -0.01520828465, -0.0445770936, -9.8810324206, 0.20279171535, 0.3924229064, -10.1240324206
16.9738972187, 0.02882470075, -0.03933002035, -9.78304526115, 0.39182470075, -0.02333002035, -9.85304526115, -0.02238675245, -0.0003098755, -9.8929965336, 0.19561324755, 0.4366901245, -10.1359965336
17.0240910053, 0.0473690759, -0.0494995164, -9.7668937086, 0.4103690759, -0.0334995164, -9.8368937086, -0.03195804285, -0.0385950371, -9.88043421495, 0.18604195715, 0.3984049629, -10.1234342149
17.074255228, 0.06112780585, -0.02975872995, -9.7740721764, 0.42412780585, -0.01375872995, -9.8440721764, -0.01520828465, -0.03201477495, -9.89957679575, 0.20279171535, 0.40498522505, -10.1425767957
17.1244690418, 0.04916369285, -0.0387318147, -9.7800542329, 0.41216369285, -0.0227318147, -9.8500542329, -0.0158064903, -0.03440759755, -9.90316602965, 0.2021935097, 0.40259240245, -10.1461660296
17.1746361256, 0.031815729, -0.0494995164, -9.79022372895, 0.394815729, -0.0334995164, -9.86022372895, -0.01281546205, -0.04278247665, -9.91034449745, 0.20518453795, 0.39421752335, -10.1533444974
17.2248392105, 0.0425834307, -0.0291605243, -9.7812506442, 0.42053857195, 0.0323031051, -9.82552780125, -0.02597598635, -0.05833582355, -9.89957679575, 0.1998006871, 0.40019957985, -10.1449696184
17.2750251293, 0.05155651545, -0.0219820565, -9.7621080634, 0.41455651545, -0.0059820565, -9.8321080634, -0.03435086545, -0.0445770936, -9.91513014265, 0.18364913455, 0.3924229064, -10.1581301426
17.3252460957, 0.0425834307, -0.04291925425, -9.78184884985, 0.4055834307, -0.02691925425, -9.85184884985, -0.0134136677, -0.06671070265, -9.91752296525, 0.2045863323, 0.37028929735, -10.1605229653
17.37550807, 0.0234408499, -0.07881159325, -9.8039824589, 0.3864408499, -0.06281159325, -9.8739824589, -0.0002531434, -0.03799683145, -9.88521986015, 0.2177468566, 0.39900316855, -10.1282198601
17.4256892204, 0.05275292675, -0.01300897175, -9.776464999, 0.41575292675, 0.00299102825, -9.846464999, -0.00922622815, -0.02603271845, -9.91513014265, 0.20877377185, 0.41096728155, -10.1581301426
17.4758660793, 0.03241393465, -0.06684748025, -9.8087681041, 0.39541393465, -0.05084748025, -9.8787681041, -0.00563699425, -0.0445770936, -9.9061570579, 0.21236300575, 0.3924229064, -10.1491570579
17.5260632038, 0.043779842, -0.0363389921, -9.7848398781, 0.406779842, -0.0203389921, -9.8548398781, -0.02238675245, 0.00507397535, -9.91991578785, 0.19561324755, 0.44207397535, -10.1629157879
17.5766601562, 0.05036010415, 0.03245465765, -9.77706320465, 0.394815729, -0.02093719775, -9.85424167245, -0.0241813694, -0.0601304405, -9.92589784435, 0.1950150419, 0.3720839143, -10.1383893562
17.6270420551, 0.0401906081, -0.1619621786, -9.78184884985, 0.4031906081, -0.1459621786, -9.85184884985, -0.026574192, -0.05594300095, -9.88043421495, 0.191425808, 0.38105699905, -10.1234342149
17.6772210598, 0.03600316855, -0.02616949605, -9.7656972973, 0.39900316855, -0.01016949605, -9.8356972973, -0.0062351999, -0.0134703998, -9.9169247596, 0.2117648001, 0.4235296002, -10.1599247596
17.7274160385, 0.0485654872, -0.0530887503, -9.78184884985, 0.4115654872, -0.0370887503, -9.85184884985, -0.00444058295, -0.03440759755, -9.91513014265, 0.21355941705, 0.40259240245, -10.1581301426
17.7776679993, 0.0461726646, -0.039928226, -9.7752685877, 0.4091726646, -0.023928226, -9.8452685877, -0.01281546205, -0.0577376179, -9.9360673404, 0.20518453795, 0.3792623821, -10.1790673404
17.8279161453, 0.04318163635, -0.0590708068, -9.79142014025, 0.40618163635, -0.0430708068, -9.86142014025, -0.01281546205, -0.05115735575, -9.91034449745, 0.20518453795, 0.38584264425, -10.1533444974
17.8780760765, 0.031815729, 0.0067318147, -9.764500886, 0.394815729, 0.0227318147, -9.834500886, -0.03674368805, -0.0110775772, -9.90675526355, 0.18125631195, 0.4259224228, -10.1497552636
17.9282832146, 0.05036010415, -0.03933002035, -9.7824470555, 0.41336010415, -0.02333002035, -9.8524470555, -0.0229849581, -0.02722912975, -9.90795167485, 0.1950150419, 0.40977087025, -10.1509516748
17.9785010815, 0.0294229064, -0.04890131075, -9.7692865312, 0.3924229064, -0.03290131075, -9.8392865312, -0.038538305, -0.09303175125, -9.91632655395, 0.2021935097, 0.31405796625, -10.1479606466
18.02891922, 0.0234408499, -0.0770169763, -9.7812506442, 0.3864408499, -0.0610169763, -9.8512506442, -0.00563699425, 0.005672181, -9.9324781065, 0.21236300575, 0.442672181, -10.1754781065
18.0790920258, 0.0366013742, -0.07761518195, -9.78304526115, 0.3996013742, -0.06161518195, -9.85304526115, -0.0074316112, -0.05115735575, -9.93187990085, 0.2105683888, 0.38584264425, -10.1748799008
18.1292750835, 0.03719957985, 0.0067318147, -9.77108114815, 0.40019957985, 0.0227318147, -9.84108114815, 0.00273788485, -0.0828622552, -9.878639598, 0.22073788485, 0.3541377448, -10.121639598
18.1794641018, 0.02523546685, -0.0459102825, -9.7896255233, 0.38823546685, -0.0299102825, -9.8596255233, -0.01281546205, -0.05235376705, -9.9001750014, 0.20518453795, 0.38464623295, -10.1431750014
18.2296330929, 0.031815729, -0.0734277424, -9.7740721764, 0.394815729, -0.0574277424, -9.8440721764, -0.0110208451, -0.0529519727, -9.9085498805, 0.2069791549, 0.3840480273, -10.1515498805
18.2798252106, 0.05275292675, -0.0136071774, -9.79022372895, 0.41575292675, 0.0023928226, -9.86022372895, -0.01161905075, -0.02722912975, -9.91752296525, 0.20638094925, 0.40977087025, -10.1605229653
18.3300001621, 0.05036010415, -0.09436494015, -9.7776614103, 0.41336010415, -0.07836494015, -9.8476614103, -0.0181993129, -0.06312146875, -9.91871937655, 0.1998006871, 0.37387853125, -10.1617193765
18.3801600933, 0.0461726646, -0.0506959277, -9.75792062385, 0.4091726646, -0.0346959277, -9.82792062385, -0.0253777807, -0.02722912975, -9.9432458082, 0.1926222193, 0.40977087025, -10.1862458082
18.43039608, 0.0461726646, -0.0530887503, -9.7740721764, 0.4091726646, -0.0370887503, -9.8440721764, -0.02836880895, -0.0230416902, -9.9300852839, 0.18963119105, 0.4139583098, -10.1730852839
18.4806120396, 0.04916369285, -0.00583050395, -9.77467038205, 0.41216369285, 0.01016949605, -9.84467038205, -0.00683340555, -0.02124707325, -9.88402344885, 0.21116659445, 0.41575292675, -10.1270234488
18.5308279991, 0.0593331889, -0.0076251209, -9.76988473685, 0.4223331889, 0.0083748791, -9.83988473685, -0.0050387886, -0.03440759755, -9.88521986015, 0.2129612114, 0.40259240245, -10.1282198601
18.5810120106, 0.03002111205, -0.0291605243, -9.8147501606, 0.39302111205, -0.0131605243, -9.8847501606, -0.00922622815, -0.09662098515, -9.88641627145, 0.20877377185, 0.34037901485, -10.1294162714
18.6312839985, 0.0461726646, -0.02138385085, -9.7824470555, 0.4091726646, -0.00538385085, -9.8524470555, -0.0193957242, -0.066112497, -9.86009522285, 0.2009970984, 0.4103690759, -10.1479606466
18.6814830303, 0.031815729, -0.0734277424, -9.77945602725, 0.394815729, -0.0574277424, -9.84945602725, -0.01640469595, -0.04038965405, -9.8977821788, 0.20159530405, 0.39661034595, -10.1407821788
18.7317240238, 0.0389941968, -0.03813360905, -9.78304526115, 0.4019941968, -0.02213360905, -9.85304526115, -0.03913651065, -0.05594300095, -9.90316602965, 0.17886348935, 0.38105699905, -10.1461660296
18.7819190025, 0.04318163635, -0.0136071774, -9.8099645154, 0.40618163635, 0.0023928226, -9.8799645154, -0.00563699425, -0.10379945295, -9.9037642353, 0.21236300575, 0.33320054705, -10.1467642353
18.8321070671, 0.0174587934, -0.06445465765, -9.7561260069, 0.3804587934, -0.04845465765, -9.8261260069, -0.01999392985, -0.08465687215, -9.9229068161, 0.19800607015, 0.35234312785, -10.1659068161
18.8823020458, 0.06112780585, -0.0411246373, -9.7848398781, 0.42412780585, -0.0251246373, -9.8548398781, -0.01161905075, -0.0637196744, -9.89718397315, 0.20638094925, 0.3732803256, -10.1401839732
18.9324650764, 0.0377977855, -0.05488336725, -9.78663449505, 0.4007977855, -0.03888336725, -9.85663449505, -0.0110208451, -0.0433806823, -9.94743324775, 0.2069791549, 0.3936193177, -10.1904332477
18.9827182293, 0.04796728155, -0.03693719775, -9.7752685877, 0.41096728155, -0.02093719775, -9.8452685877, -0.00444058295, -0.0876479004, -9.88880909405, 0.21355941705, 0.3493520996, -10.131809094
19.0328900814, 0.0342085516, -0.00941973785, -9.7800542329, 0.3972085516, 0.00658026215, -9.8500542329, -0.03195804285, -0.05235376705, -9.9097462918, 0.18604195715, 0.38464623295, -10.1527462918
19.0830771923, 0.0306193177, -0.04291925425, -9.79261655155, 0.3936193177, -0.02691925425, -9.86261655155, -0.00204776035, -0.04278247665, -9.9037642353, 0.21595223965, 0.39421752335, -10.1467642353
19.1332831383, 0.0258336725, -0.04291925425, -9.7597152408, 0.3888336725, -0.02691925425, -9.8297152408, 0.0141037922, -0.06671070265, -9.8858180658, 0.2321037922, 0.37028929735, -10.1288180658
19.183465004, 0.05036010415, -0.063856452, -9.79022372895, 0.41336010415, -0.047856452, -9.86022372895, -0.0205921355, -0.0505591501, -9.91034449745, 0.1974078645, 0.3864408499, -10.1533444974
19.2336101532, 0.0413870194, -0.099748791, -9.7956075798, 0.4043870194, -0.083748791, -9.8656075798, -0.0397347163, -0.02005066195, -9.90555885225, 0.1782652837, 0.41694933805, -10.1485588522
19.2837781906, 0.04796728155, -0.04052643165, -9.73638522045, 0.41096728155, -0.02452643165, -9.80638522045, -0.0098244338, -0.02962195235, -9.9109427031, 0.2081755662, 0.40737804765, -10.1539427031
19.3340451717, 0.0258336725, -0.0435174599, -9.77586679335, 0.3888336725, -0.0275174599, -9.84586679335, -0.0361454824, -0.0589340292, -9.90675526355, 0.1818545176, 0.3780659708, -10.1497552636
19.384275198, 0.03959240245, -0.02138385085, -9.77945602725, 0.40259240245, -0.00538385085, -9.84945602725, -0.0193957242, -0.042184271, -9.9109427031, 0.1986042758, 0.394815729, -10.1539427031
19.4344651699, 0.0545475437, -0.03574078645, -9.77586679335, 0.4175475437, -0.01974078645, -9.84586679335, 0.00273788485, -0.0625232631, -9.91034449745, 0.22073788485, 0.3744767369, -10.1533444974
19.4845972061, 0.0497618985, -0.0327497582, -9.7477511278, 0.4127618985, -0.0167497582, -9.8177511278, 0.00393429615, -0.0134703998, -9.90555885225, 0.22193429615, 0.4235296002, -10.1485588522
19.5347721577, 0.05394933805, -0.0483031051, -9.77108114815, 0.41694933805, -0.0323031051, -9.84108114815, -0.01161905075, -0.04756812185, -9.8822288319, 0.20638094925, 0.38943187815, -10.1252288319
19.5849540234, 0.0389941968, -0.0554815729, -9.7932147572, 0.4019941968, -0.0394815729, -9.8632147572, -0.0217885468, -0.0912371343, -9.9085498805, 0.1962114532, 0.3457628657, -10.1515498805
19.6352541447, 0.03959240245, -0.0447138712, -9.77706320465, 0.40259240245, -0.0287138712, -9.84706320465, -0.02358316375, -0.0278273354, -9.9157283483, 0.19441683625, 0.4091726646, -10.1587283483
19.6854720116, 0.055743955, -0.00343768135, -9.7752685877, 0.418743955, 0.01256231865, -9.8452685877, 0.00393429615, -0.06790711395, -9.9157283483, 0.22193429615, 0.36909288605, -10.1587283483
19.7356500626, 0.0533511324, -0.00463409265, -9.77108114815, 0.4163511324, 0.01136590735, -9.84108114815, -0.02238675245, -0.1032012473, -9.9252996387, 0.19561324755, 0.3337987527, -10.1682996387
19.785834074, 0.04078881375, -0.03334796385, -9.7848398781, 0.40378881375, -0.01734796385, -9.8548398781, -0.0062351999, -0.0613268518, -9.88163062625, 0.2117648001, 0.3756731482, -10.1246306262
19.8360390663, 0.03719957985, -0.004035887, -9.77467038205, 0.40019957985, 0.011964113, -9.84467038205, -0.01999392985, -0.00330090375, -9.91273732005, 0.19800607015, 0.43369909625, -10.15573732
19.8863182068, 0.0413870194, -0.0219820565, -9.7680901199, 0.4043870194, -0.0059820565, -9.8380901199, -0.0134136677, -0.01047937155, -9.9097462918, 0.2045863323, 0.42652062845, -10.1527462918
19.9365451336, 0.04198522505, -0.03693719775, -9.7788578216, 0.40498522505, -0.02093719775, -9.8488578216, -0.0122172564, -0.0445770936, -9.87923780365, 0.2057827436, 0.3924229064, -10.1222378037
19.986716032, 0.0330121403, -0.05129413335, -9.8015896363, 0.3960121403, -0.03529413335, -9.8715896363, -0.00922622815, -0.06312146875, -9.88402344885, 0.20877377185, 0.37387853125, -10.1270234488
20.0369510651, 0.04437804765, -0.05488336725, -9.7752685877, 0.40737804765, -0.03888336725, -9.8452685877, -0.00444058295, -0.0038991094, -9.86847010195, 0.21355941705, 0.4331008906, -10.111470102
20.0871782303, 0.05514574935, -0.06325824635, -9.7692865312, 0.41814574935, -0.04725824635, -9.8392865312, -0.02597598635, -0.0553447953, -9.91034449745, 0.19202401365, 0.3816552047, -10.1533444974
20.1373591423, 0.05634216065, -0.0351425808, -9.76868832555, 0.41934216065, -0.0191425808, -9.83868832555, -0.02358316375, -0.09303175125, -9.8702647189, 0.19441683625, 0.34396824875, -10.1132647189
20.1876060963, 0.0354049629, -0.02975872995, -9.788429112, 0.3984049629, -0.01375872995, -9.858429112, -0.01042263945, -0.0338093919, -9.890603711, 0.20757736055, 0.4031906081, -10.133603711
20.2378311157, 0.0401906081, 0.02049054465, -9.7621080634, 0.4031906081, 0.03649054465, -9.8321080634, -0.0193957242, -0.02483630715, -9.91991578785, 0.1986042758, 0.41216369285, -10.1629157879
20.288022995, 0.05514574935, -0.0578743955, -9.76509909165, 0.38225341035, -0.0215354034, -9.84108114815, -0.0038423773, -0.06671070265, -9.8953893562, 0.23629123175, 0.3601198013, -10.1228360093
20.338242054, 0.05036010415, -0.0506959277, -9.7752685877, 0.41336010415, -0.0346959277, -9.8452685877, -0.01281546205, -0.0625232631, -9.92948707825, 0.20518453795, 0.3744767369, -10.1724870783
20.3884460926, 0.05155651545, -0.02018743955, -9.7788578216, 0.41455651545, -0.00418743955, -9.8488578216, -0.0086280225, -0.0720945535, -9.950424276, 0.2093719775, 0.3649054465, -10.193424276
20.4386451244, 0.0354049629, -0.0686420972, -9.79381296285, 0.3984049629, -0.0526420972, -9.86381296285, -0.0062351999, -0.0170596337, -9.8822288319, 0.2117648001, 0.4199403663, -10.1252288319
20.4888420105, 0.04677087025, -0.016, -9.7932147572, 0.40977087025, -0.0, -9.8632147572, -0.01760110725, -0.09542457385, -9.9121391144, 0.20039889275, 0.34157542615, -10.1551391144
20.5390331745, 0.02523546685, -0.03574078645, -9.78065243855, 0.38823546685, -0.01974078645, -9.85065243855, -0.0050387886, -0.0206488676, -9.87086292455, 0.2129612114, 0.4163511324, -10.1138629246
20.589217186, 0.0413870194, -0.0447138712, -9.7561260069, 0.4043870194, -0.0287138712, -9.8261260069, -0.026574192, -0.04756812185, -9.8941929449, 0.191425808, 0.38943187815, -10.1371929449
20.6393780708, 0.0593331889, 0.0174995164, -9.81893760015, 0.4223331889, 0.0334995164, -9.88893760015, -0.0217885468, -0.07269275915, -9.89359473925, 0.1962114532, 0.36430724085, -10.1365947392
20.6895442009, 0.0425834307, -0.0483031051, -9.80099143065, 0.4055834307, -0.0323031051, -9.87099143065, 0.0248714939, -0.06072864615, -9.8918001223, 0.2428714939, 0.37627135385, -10.1348001223
20.7397720814, 0.043779842, -0.01779461695, -9.76988473685, 0.406779842, -0.00179461695, -9.83988473685, -0.01879751855, -0.0290237467, -9.9037642353, 0.19920248145, 0.4079762533, -10.1467642353
20.7899310589, 0.04318163635, -0.0183928226, -9.77108114815, 0.40618163635, -0.0023928226, -9.84108114815, -0.0122172564, -0.07149634785, -9.88880909405, 0.2057827436, 0.36550365215, -10.131809094
20.8400821686, 0.0413870194, -0.0483031051, -9.77586679335, 0.4043870194, -0.0323031051, -9.84586679335, -0.0158064903, -0.03440759755, -9.9061570579, 0.2021935097, 0.40259240245, -10.1491570579
20.890253067, 0.031815729, -0.01659820565, -9.7740721764, 0.394815729, -0.00059820565, -9.8440721764, -0.0158064903, -0.03799683145, -9.9157283483, 0.2021935097, 0.39900316855, -10.1587283483
20.9407570362, 0.0401906081, -0.0554815729, -9.776464999, 0.39302111205, -0.0430708068, -9.8452685877, -0.0229849581, -0.06551429135, -9.9097462918, 0.1950150419, 0.37148570865, -10.1527462918
20.9911830425, 0.04677087025, -0.02616949605, -9.7668937086, 0.40977087025, -0.01016949605, -9.8368937086, -0.014610079, -0.04637171055, -9.89598756185, 0.203389921, 0.39062828945, -10.1389875618
21.0413680077, 0.0473690759, 0.1048375413, -9.76988473685, 0.4103690759, 0.1208375413, -9.83988473685, -0.0014495547, -0.1043976586, -9.90436244095, 0.2165504453, 0.3326023414, -10.1473624409
21.0915322304, 0.04916369285, -0.0494995164, -9.7908219346, 0.41216369285, -0.0334995164, -9.8608219346, -0.0170029016, -0.0326129806, -9.8929965336, 0.2009970984, 0.4043870194, -10.1359965336
21.1417632103, 0.0425834307, -0.0411246373, -9.74954574475, 0.4055834307, -0.0251246373, -9.81954574475, -0.0193957242, -0.02962195235, -9.90914808615, 0.1986042758, 0.40737804765, -10.1521480861
21.1919600964, 0.0377977855, -0.05966901245, -9.78783090635, 0.4007977855, -0.04366901245, -9.85783090635, -0.00922622815, -0.0888443117, -9.89598756185, 0.20877377185, 0.3481556883, -10.1389875618
21.2421181202, 0.0234408499, -0.0136071774, -9.77706320465, 0.3864408499, 0.0023928226, -9.84706320465, -0.01520828465, -0.0625232631, -9.89838038445, 0.20279171535, 0.3744767369, -10.1413803844
21.2923071384, 0.05036010415, -0.016, -9.78304526115, 0.41336010415, -0.0, -9.85304526115, -0.01760110725, -0.0362022145, -9.9085498805, 0.20039889275, 0.4007977855, -10.1515498805
21.3424770832, 0.0270300838, -0.0435174599, -9.77467038205, 0.3900300838, -0.0275174599, -9.84467038205, -0.0217885468, -0.0972191908, -9.890603711, 0.1962114532, 0.3397808092, -10.133603711
21.3926792145, 0.04318163635, -0.0961595571, -9.776464999, 0.40618163635, -0.0801595571, -9.846464999, -0.02238675245, -0.06192505745, -9.91273732005, 0.19561324755, 0.37507494255, -10.15573732
21.4428751469, 0.0545475437, -0.05129413335, -9.7800542329, 0.4175475437, -0.03529413335, -9.8500542329, -0.0481095954, -0.054148384, -9.9157283483, 0.1698904046, 0.382851616, -10.1587283483
21.4930341244, 0.0389941968, -0.01779461695, -9.7716793538, 0.4019941968, -0.00179461695, -9.8416793538, -0.0217885468, -0.0098811659, -9.90436244095, 0.1962114532, 0.4271188341, -10.1473624409
21.5432271957, 0.02882470075, -0.0889810893, -9.7944111685, 0.39182470075, -0.0729810893, -9.8644111685, -0.0038423773, -0.0362022145, -9.9001750014, 0.2141576227, 0.4007977855, -10.1431750014
21.5934062004, 0.05514574935, -0.03334796385, -9.7836434668, 0.41814574935, -0.01734796385, -9.8536434668, -0.01161905075, -0.0469699162, -9.8941929449, 0.20638094925, 0.3900300838, -10.1371929449
21.6436560154, 0.0425834307, -0.0459102825, -9.77467038205, 0.4055834307, -0.0299102825, -9.84467038205, -0.01401187335, 0.01584167705, -9.87804139235, 0.20398812665, 0.45284167705, -10.1210413923
21.6938500404, 0.03361034595, -0.03454437515, -9.7908219346, 0.39661034595, -0.01854437515, -9.8608219346, -0.0050387886, -0.05594300095, -9.90795167485, 0.2129612114, 0.38105699905, -10.1509516748
21.7440290451, 0.0425834307, -0.051892339, -9.80458066455, 0.4151547211, -0.0370887503, -9.86500937415, -0.0193957242, -0.0960227795, -9.8810324206, 0.1746760498, 0.37986058775, -10.1730852839
21.7944200039, 0.0246372612, -0.07641877065, -9.73758163175, 0.3876372612, -0.06041877065, -9.80758163175, -0.0181993129, -0.03799683145, -9.9181211709, 0.1998006871, 0.39900316855, -10.1611211709
21.8445920944, 0.0413870194, -0.0411246373, -9.7776614103, 0.4043870194, -0.0251246373, -9.8476614103, -0.00444058295, -0.0864514891, -9.89359473925, 0.21355941705, 0.3505485109, -10.1365947392
21.8947532177, 0.04796728155, -0.08359723845, -9.7848398781, 0.41096728155, -0.06759723845, -9.8548398781, -0.0110208451, -0.06551429135, -9.85650598895, 0.2069791549, 0.37148570865, -10.0995059889
21.9449310303, 0.04796728155, -0.0734277424, -9.77467038205, 0.41096728155, -0.0574277424, -9.84467038205, -0.0217885468, -0.04996094445, -9.9037642353, 0.1962114532, 0.38703905555, -10.1467642353
21.9951131344, 0.0461726646, -0.09316852885, -9.77347397075, 0.4091726646, -0.07716852885, -9.84347397075, -0.0349490711, -0.06790711395, -9.90795167485, 0.1830509289, 0.36909288605, -10.1509516748
22.0452852249, 0.0509583098, -0.04052643165, -9.78543808375, 0.4139583098, -0.02452643165, -9.85543808375, -0.0205921355, -0.0517555614, -9.88880909405, 0.1974078645, 0.3852444386, -10.131809094
22.0954990387, 0.03719957985, -0.04172284295, -9.7489475391, 0.40019957985, -0.02572284295, -9.8189475391, -0.0253777807, -0.0517555614, -9.88880909405, 0.1926222193, 0.3852444386, -10.131809094
22.1456751823, 0.03719957985, -0.0435174599, -9.7860362894, 0.40019957985, -0.0275174599, -9.8560362894, 0.0081217357, -0.0338093919, -9.89838038445, 0.2261217357, 0.4031906081, -10.1413803844
22.1959300041, 0.05036010415, -0.0243748791, -9.7896255233, 0.41336010415, -0.0083748791, -9.8596255233, -0.0074316112, -0.04397888795, -9.89957679575, 0.2105683888, 0.39302111205, -10.1425767957
22.246158123, 0.04198522505, -0.0124107661, -9.776464999, 0.40498522505, 0.0035892339, -9.846464999, 0.00632711875, -0.02005066195, -9.90196961835, 0.22432711875, 0.41694933805, -10.1449696184
22.2963750362, 0.04437804765, -0.04770489945, -9.7944111685, 0.40737804765, -0.03170489945, -9.8644111685, -0.0170029016, -0.05115735575, -9.9049606466, 0.2009970984, 0.38584264425, -10.1479606466
22.3466150761, 0.0270300838, -0.02616949605, -9.764500886, 0.3900300838, -0.01016949605, -9.834500886, -0.0170029016, -0.05594300095, -9.89957679575, 0.2009970984, 0.38105699905, -10.1425767957
22.3968341351, 0.0294229064, -0.0375354034, -9.77586679335, 0.3924229064, -0.0215354034, -9.84586679335, 0.01470199785, -0.01047937155, -9.8929965336, 0.23270199785, 0.42652062845, -10.1359965336
22.447065115, 0.04437804765, -0.0255712904, -9.76150985775, 0.40977087025, -0.02931207685, -9.8309116521, 0.0009432679, -0.0385950371, -9.9073534692, 0.1902293967, 0.40259240245, -10.1282198601
22.497300148, 0.0342085516, -0.03933002035, -9.75433138995, 0.3972085516, -0.02333002035, -9.82433138995, -0.03554727675, -0.03680042015, -9.92230861045, 0.18245272325, 0.40019957985, -10.1653086104
22.5474700928, 0.0413870194, -0.0411246373, -9.78184884985, 0.4043870194, -0.0251246373, -9.85184884985, -0.01760110725, -0.030220158, -9.88880909405, 0.20039889275, 0.406779842, -10.131809094
22.5976200104, 0.04796728155, -0.03095514125, -9.7896255233, 0.41096728155, -0.01495514125, -9.8596255233, -0.0253777807, -0.06072864615, -9.87564856975, 0.1926222193, 0.37627135385, -10.1186485698
22.6477751732, 0.0389941968, -0.04411566555, -9.7872327007, 0.4019941968, -0.02811566555, -9.8572327007, -0.0158064903, -0.08346046085, -9.89000550535, 0.2021935097, 0.35353953915, -10.1330055054
22.6979441643, 0.0401906081, -0.0542851616, -9.7800542329, 0.4031906081, -0.0382851616, -9.8500542329, -0.00802981685, -0.00449731505, -9.8953893562, 0.20997018315, 0.43250268495, -10.1383893562
22.748167038, 0.04318163635, 0.0091246373, -9.7704829425, 0.40618163635, 0.0251246373, -9.8404829425, -0.04033292195, -0.03081836365, -9.8750503641, 0.17766707805, 0.40618163635, -10.1180503641
22.7983491421, 0.03839599115, -0.04411566555, -9.7788578216, 0.40139599115, -0.02811566555, -9.8488578216, -0.0325562485, -0.0864514891, -9.88402344885, 0.1854437515, 0.3505485109, -10.1270234488
22.8485441208, 0.04318163635, 0.0450169763, -9.78902731765, 0.40618163635, 0.0610169763, -9.85902731765, -0.0277706033, -0.0122739885, -9.9097462918, 0.1902293967, 0.4247260115, -10.1527462918
22.8987600803, 0.031815729, -0.0782133876, -9.77706320465, 0.394815729, -0.0622133876, -9.84706320465, -0.0205921355, -0.04876453315, -9.89838038445, 0.1974078645, 0.38823546685, -10.1413803844
22.9489870071, 0.03241393465, -0.04890131075, -9.77945602725, 0.39541393465, -0.03290131075, -9.84945602725, 0.0057289131, 0.00028833015, -9.9133355257, 0.2237289131, 0.43728833015, -10.1563355257
22.999256134, 0.0306193177, -0.0339461695, -9.78184884985, 0.3936193177, -0.0179461695, -9.85184884985, -0.0229849581, 0.00028833015, -9.9205139935, 0.1950150419, 0.43728833015, -10.1635139935
23.0494310856, 0.0449762533, -0.0566779842, -9.7740721764, 0.4079762533, -0.0406779842, -9.8440721764, -0.014610079, -0.0038991094, -9.89239832795, 0.203389921, 0.4331008906, -10.1353983279
23.0996570587, 0.05394933805, -0.03095514125, -9.8350891527, 0.41694933805, -0.01495514125, -9.9050891527, -0.02358316375, 0.01225244315, -9.9073534692, 0.19441683625, 0.44925244315, -10.1503534692
23.1500110626, 0.04916369285, -0.04770489945, -9.78663449505, 0.41216369285, -0.03170489945, -9.85663449505, -0.0086280225, -0.0625232631, -9.8941929449, 0.2093719775, 0.3744767369, -10.1371929449
23.2011380196, 0.05873498325, -0.0614636294, -9.7800542329, 0.42173498325, -0.0454636294, -9.8500542329, -0.0158064903, -0.018256045, -9.9097462918, 0.2021935097, 0.418743955, -10.1527462918
23.2513971329, 0.0617260115, -0.02258026215, -9.78065243855, 0.4247260115, -0.00658026215, -9.85065243855, -0.0217885468, -0.00569372635, -9.94025477995, 0.1962114532, 0.43130627365, -10.1832547799
23.3015840054, 0.0461726646, -0.0722313311, -9.8075716928, 0.4091726646, -0.0562313311, -9.8775716928, -0.02358316375, -0.02603271845, -9.9193175822, 0.19441683625, 0.41096728155, -10.1623175822
23.3517930508, 0.031815729, -0.0423210486, -9.77586679335, 0.394815729, -0.0263210486, -9.84586679335, 0.0021396792, -0.0493627388, -9.8882108884, 0.2201396792, 0.3876372612, -10.1312108884
23.4019451141, 0.0449762533, -0.07043671415, -9.7932147572, 0.4079762533, -0.05443671415, -9.8632147572, 0.0057289131, -0.0314165693, -9.90555885225, 0.2237289131, 0.4055834307, -10.1485588522
23.4521541595, 0.0425834307, -0.00463409265, -9.7872327007, 0.4055834307, 0.01136590735, -9.8572327007, -0.0217885468, -0.07628199305, -9.88880909405, 0.1962114532, 0.36071800695, -10.131809094
23.5023081303, 0.0306193177, -0.0901775006, -9.78783090635, 0.3936193177, -0.0741775006, -9.85783090635, -0.00683340555, -0.01406860545, -9.9001750014, 0.21116659445, 0.42293139455, -10.1431750014
23.5524940491, 0.0449762533, -0.05009772205, -9.79022372895, 0.4079762533, -0.03409772205, -9.86022372895, -0.02956522025, -0.05713941225, -9.92829066695, 0.18843477975, 0.37986058775, -10.1712906669
23.6027581692, 0.0509583098, -0.04052643165, -9.77108114815, 0.4139583098, -0.02452643165, -9.84108114815, -0.0409311276, -0.01167578285, -9.902567824, 0.1770688724, 0.42532421715, -10.145567824
23.6529581547, 0.05155651545, -0.0494995164, -9.7537331843, 0.41455651545, -0.0334995164, -9.8237331843, -0.0373418937, -0.0637196744, -9.88402344885, 0.1806581063, 0.3732803256, -10.1270234488
23.7031261921, 0.04557445895, -0.04172284295, -9.7824470555, 0.40857445895, -0.02572284295, -9.8524470555, -0.00922622815, -0.0768801987, -9.9001750014, 0.20877377185, 0.3601198013, -10.1431750014
23.7534241676, 0.04198522505, -0.0483031051, -9.78304526115, 0.40498522505, -0.0323031051, -9.85304526115, -0.0193957242, -0.0146668111, -9.9324781065, 0.2237289131, 0.4031906081, -10.1485588522
23.8036830425, 0.0461726646, -0.05009772205, -9.79500937415, 0.4091726646, -0.03409772205, -9.86500937415, -0.0229849581, 0.0044757697, -9.9241032274, 0.1950150419, 0.4414757697, -10.1671032274
23.8538351059, 0.03839599115, -0.04411566555, -9.7692865312, 0.40139599115, -0.02811566555, -9.8392865312, -0.0098244338, -0.07269275915, -9.88402344885, 0.2081755662, 0.36430724085, -10.1270234488
23.9040551186, 0.0521547211, -0.04052643165, -9.7908219346, 0.4151547211, -0.02452643165, -9.8608219346, -0.0301634259, -0.05474658965, -9.88880909405, 0.1878365741, 0.38225341035, -10.131809094
23.95423913, 0.04557445895, -0.05607977855, -9.76629550295, 0.40857445895, -0.04007977855, -9.83629550295, -0.0181993129, -0.0529519727, -9.8918001223, 0.1998006871, 0.3840480273, -10.1348001223
24.0044300556, 0.0449762533, -0.0542851616, -9.76988473685, 0.4079762533, -0.0382851616, -9.83988473685, 0.01589840915, -0.0517555614, -9.88880909405, 0.23389840915, 0.3852444386, -10.131809094
24.0546550751, 0.04198522505, -0.0291605243, -9.7728757651, 0.40498522505, -0.0131605243, -9.8428757651, -0.0158064903, -0.0242381015, -9.8929965336, 0.2021935097, 0.4127618985, -10.1359965336
24.1048641205, 0.0306193177, -0.004035887, -9.776464999, 0.3936193177, 0.011964113, -9.846464999, -0.01042263945, -0.08704969475, -9.89120191665, 0.20757736055, 0.34995030525, -10.1342019166
24.1550271511, 0.04437804765, -0.04172284295, -9.77945602725, 0.40737804765, -0.02572284295, -9.84945602725, -0.03195804285, -0.01646142805, -9.8834252432, 0.18604195715, 0.42053857195, -10.1264252432
24.2051970959, 0.0330121403, -0.0794097989, -9.7740721764, 0.3960121403, -0.0634097989, -9.8440721764, -0.0038423773, -0.03680042015, -9.89957679575, 0.2141576227, 0.40019957985, -10.1425767957
24.2553482056, 0.0186552047, -0.0267677017, -9.7932147572, 0.3816552047, -0.0107677017, -9.8632147572, -0.0349490711, -0.02722912975, -9.9085498805, 0.1830509289, 0.40977087025, -10.1515498805
24.3055670261, 0.05275292675, -0.0650528633, -9.7561260069, 0.41575292675, -0.0490528633, -9.8261260069, -0.0170029016, -0.054148384, -9.90077320705, 0.2009970984, 0.382851616, -10.143773207
24.3557581902, 0.03719957985, -0.0363389921, -9.7656972973, 0.3852444386, -0.0622133876, -9.8739824589, -0.00563699425, -0.01885425065, -9.93068348955, 0.20279171535, 0.4283152454, -10.1282198601
24.4073030949, 0.0413870194, -0.0375354034, -9.77825961595, 0.4043870194, -0.0215354034, -9.84825961595, -0.01401187335, -0.02962195235, -9.8870144771, 0.20398812665, 0.40737804765, -10.1300144771
24.4574651718, 0.04198522505, -0.08240082715, -9.7621080634, 0.40498522505, -0.06640082715, -9.8321080634, -0.01401187335, -0.0673089083, -9.89359473925, 0.20398812665, 0.3696910917, -10.1365947392
24.5076451302, 0.0377977855, -0.0387318147, -9.7812506442, 0.4007977855, -0.0227318147, -9.8512506442, -0.00922622815, -0.0350058032, -9.94504042515, 0.20877377185, 0.4019941968, -10.1880404251
24.5577950478, 0.03361034595, -0.051892339, -9.788429112, 0.39661034595, -0.035892339, -9.858429112, -0.0253777807, -0.030220158, -9.89239832795, 0.1926222193, 0.406779842, -10.1353983279
24.6080009937, 0.0545475437, -0.01181256045, -9.78902731765, 0.4091726646, -0.02811566555, -9.84706320465, -0.01520828465, -0.0397914484, -9.92111219915, 0.19920248145, 0.37746776515, -10.1449696184
24.6592562199, 0.0413870194, -0.0195892339, -9.7991968137, 0.4043870194, -0.0035892339, -9.8691968137, -0.0134136677, -0.0230416902, -9.91034449745, 0.2045863323, 0.4139583098, -10.1533444974
24.7094521523, 0.0354049629, -0.0626600407, -9.7991968137, 0.3984049629, -0.0466600407, -9.8691968137, -0.02238675245, -0.0409878597, -9.91991578785, 0.19561324755, 0.3960121403, -10.1629157879
24.7596120834, 0.0485654872, -0.04172284295, -9.7812506442, 0.4115654872, -0.02572284295, -9.8512506442, -0.0241813694, -0.0565412066, -9.91632655395, 0.1938186306, 0.3804587934, -10.1593265539
24.8097760677, 0.0449762533, -0.07043671415, -9.7824470555, 0.4079762533, -0.05443671415, -9.8524470555, -0.014610079, -0.04158606535, -9.90555885225, 0.203389921, 0.39541393465, -10.1485588522
24.8600010872, 0.0581367776, -0.06924030285, -9.79261655155, 0.4211367776, -0.05324030285, -9.86261655155, -0.0205921355, -0.08944251735, -9.90196961835, 0.1974078645, 0.34755748265, -10.1449696184
24.9101641178, 0.02523546685, -0.01899102825, -9.7740721764, 0.38823546685, -0.00299102825, -9.8440721764, -0.0253777807, 0.0080650036, -9.89598756185, 0.1926222193, 0.4450650036, -10.1389875618
24.9603431225, 0.04318163635, -0.0339461695, -9.7836434668, 0.40618163635, -0.0179461695, -9.8536434668, -0.0098244338, -0.00330090375, -9.9396565743, 0.2081755662, 0.43369909625, -10.1826565743
25.0107200146, 0.0449762533, -0.04650848815, -9.7824470555, 0.4211367776, -0.0203389921, -9.8321080634, -0.02119034115, -0.0242381015, -9.9659776229, 0.20159530405, 0.38943187815, -10.1682996387
25.0609931946, 0.0581367776, -0.0542851616, -9.7597152408, 0.4211367776, -0.0382851616, -9.8297152408, -0.0050387886, -0.030220158, -9.8654790737, 0.2129612114, 0.406779842, -10.1084790737
25.1112880707, 0.03600316855, -0.0423210486, -9.7549295956, 0.39900316855, -0.0263210486, -9.8249295956, -0.0193957242, -0.04996094445, -9.91513014265, 0.1986042758, 0.38703905555, -10.1581301426
25.161588192, 0.03361034595, -0.06924030285, -9.76270626905, 0.41934216065, -0.0047856452, -9.83868832555, -0.01760110725, -0.04756812185, -9.90436244095, 0.23748764305, 0.3661018578, -10.1605229653
25.2121081352, 0.04198522505, -0.0650528633, -9.7800542329, 0.40498522505, -0.0490528633, -9.8500542329, -0.0277706033, -0.042184271, -9.9037642353, 0.1902293967, 0.394815729, -10.1467642353
25.2622511387, 0.0533511324, -0.05966901245, -9.77347397075, 0.4163511324, -0.04366901245, -9.84347397075, -0.014610079, -0.03919324275, -9.88163062625, 0.203389921, 0.39780675725, -10.1246306262
25.3124530315, 0.0330121403, -0.0542851616, -9.78783090635, 0.3960121403, -0.0382851616, -9.85783090635, -0.0253777807, -0.0529519727, -9.89598756185, 0.1926222193, 0.3840480273, -10.1389875618
25.3643331528, 0.019851616, -0.0447138712, -9.77945602725, 0.382851616, -0.0287138712, -9.84945602725, -0.01640469595, -0.07628199305, -9.88282703755, 0.20159530405, 0.36071800695, -10.1258270375
25.4145071507, 0.0545475437, 0.0031425808, -9.74715292215, 0.4175475437, 0.0191425808, -9.81715292215, -0.0253777807, -0.030220158, -9.87804139235, 0.1926222193, 0.406779842, -10.1210413923
25.4646711349, 0.0377977855, -0.07641877065, -9.7812506442, 0.4007977855, -0.06041877065, -9.8512506442, -0.0134136677, -0.0517555614, -9.8989785901, 0.2045863323, 0.3852444386, -10.1419785901
25.5148501396, 0.02044982165, 0.1203908882, -9.776464999, 0.38344982165, 0.1363908882, -9.846464999, -0.02836880895, -0.054148384, -9.9013714127, 0.18963119105, 0.382851616, -10.1443714127
25.5650191307, 0.02762828945, -0.004035887, -9.76509909165, 0.39062828945, 0.011964113, -9.83509909165, -0.0241813694, -0.05594300095, -9.89479115055, 0.1938186306, 0.38105699905, -10.1377911506
25.6152641773, 0.0162623821, -0.07641877065, -9.76031344645, 0.3792623821, -0.06041877065, -9.83031344645, -0.02477957505, -0.06431788005, -9.8714611302, 0.19322042495, 0.37268211995, -10.1144611302
25.6654682159, 0.03121752335, -0.0542851616, -9.77586679335, 0.39421752335, -0.0382851616, -9.84586679335, -0.0110208451, -0.00090808115, -10.0168251031, 0.2069791549, 0.43609191885, -10.2598251031
25.715649128, 0.04557445895, -0.0447138712, -9.7860362894, 0.40857445895, -0.0287138712, -9.8560362894, -0.0134136677, -0.0792730213, -9.8953893562, 0.2045863323, 0.3577269787, -10.1383893562
25.7658481598, 0.03361034595, -0.075820565, -9.75193856735, 0.39661034595, -0.059820565, -9.82193856735, -0.02477957505, -0.09303175125, -9.91752296525, 0.19322042495, 0.34396824875, -10.1605229653
25.8160300255, 0.03480675725, -0.0447138712, -9.752536773, 0.39780675725, -0.0287138712, -9.822536773, -0.02717239765, -0.0744873761, -9.87325574715, 0.19082760235, 0.3625126239, -10.1162557471
25.8662190437, 0.067708068, -0.00702691525, -9.79142014025, 0.430708068, 0.00897308475, -9.86142014025, -0.00324417165, -0.00449731505, -9.91154090875, 0.21475582835, 0.43250268495, -10.1545409087
25.917538166, 0.0354049629, -0.0483031051, -9.77945602725, 0.3984049629, -0.0323031051, -9.84945602725, -0.0134136677, -0.10858509815, -9.8858180658, 0.2045863323, 0.32841490185, -10.1288180658
25.9677391052, 0.04916369285, -0.0662492746, -9.79979501935, 0.41216369285, -0.0502492746, -9.86979501935, -0.0289670146, -0.0003098755, -9.88163062625, 0.1890329854, 0.4366901245, -10.1246306262
26.0184011459, 0.0306193177, -0.00583050395, -9.7752685877, 0.3936193177, 0.01016949605, -9.8452685877, -0.00204776035, -0.0350058032, -9.9288888726, 0.21595223965, 0.4019941968, -10.1718888726
26.0688140392, 0.0366013742, -0.01181256045, -9.77706320465, 0.3996013742, 0.00418743955, -9.84706320465, -0.0170029016, -0.0481663275, -9.89120191665, 0.2009970984, 0.3888336725, -10.1342019166
26.1189830303, 0.0330121403, -0.0303569356, -9.80458066455, 0.3960121403, -0.0143569356, -9.87458066455, -0.00922622815, -0.0697017309, -9.8894072997, 0.20877377185, 0.3672982691, -10.1324072997
26.1691992283, 0.0485654872, -0.03215155255, -9.8027860476, 0.4115654872, -0.01615155255, -9.8727860476, -0.00563699425, -0.01167578285, -9.8690683076, 0.21236300575, 0.42532421715, -10.1120683076
26.2194092274, 0.03839599115, -0.04650848815, -9.77586679335, 0.40139599115, -0.03050848815, -9.84586679335, -0.01760110725, -0.0326129806, -9.89000550535, 0.20039889275, 0.4043870194, -10.1330055054
26.2695720196, 0.0497618985, -0.0494995164, -9.79022372895, 0.4127618985, -0.0334995164, -9.86022372895, -0.0098244338, -0.0529519727, -9.914531937, 0.2081755662, 0.3840480273, -10.157531937
26.3197622299, 0.03959240245, -0.0076251209, -9.7848398781, 0.40259240245, 0.0083748791, -9.8548398781, -0.01640469595, -0.01765783935, -9.90555885225, 0.20159530405, 0.41934216065, -10.1485588522
26.369988203, 0.0545475437, -0.05009772205, -9.78065243855, 0.4175475437, -0.03409772205, -9.85065243855, -0.01161905075, 0.0188327053, -9.91034449745, 0.20638094925, 0.4558327053, -10.1533444974
26.420219183, 0.0533511324, -0.02856231865, -9.78783090635, 0.4163511324, -0.01256231865, -9.85783090635, -0.00563699425, -0.0565412066, -9.8774431867, 0.21236300575, 0.3804587934, -10.1204431867
26.4703640938, 0.06830627365, -0.0542851616, -9.78783090635, 0.43130627365, -0.0382851616, -9.85783090635, -0.0122172564, -0.0888443117, -9.8953893562, 0.2057827436, 0.3481556883, -10.1383893562
26.520539999, 0.0366013742, 0.0007497582, -9.76629550295, 0.3996013742, 0.0167497582, -9.83629550295, -0.002645966, -0.03799683145, -9.92111219915, 0.215354034, 0.39900316855, -10.1641121991
26.5707511902, 0.0401906081, -0.0171964113, -9.788429112, 0.4031906081, -0.0011964113, -9.858429112, 0.01829123175, -0.0625232631, -9.88043421495, 0.23629123175, 0.3744767369, -10.1234342149
26.6209881306, 0.0354049629, 0.0186959277, -9.776464999, 0.3984049629, 0.0346959277, -9.846464999, -0.02358316375, 0.02062732225, -9.8977821788, 0.19441683625, 0.45762732225, -10.1407821788
26.6711881161, 0.0330121403, -0.0387318147, -9.7848398781, 0.3960121403, -0.0227318147, -9.8548398781, 0.0033360905, -0.0601304405, -9.9049606466, 0.2213360905, 0.3768695595, -10.1479606466
26.7213811874, 0.0784757697, -0.1248734283, -9.7776614103, 0.4414757697, -0.1088734283, -9.8476614103, -0.0277706033, -0.090040723, -9.92470143305, 0.1902293967, 0.346959277, -10.1677014331
26.7715890408, 0.0533511324, -0.00343768135, -9.77586679335, 0.4163511324, 0.01256231865, -9.84586679335, -0.038538305, -0.0625232631, -9.93666554605, 0.179461695, 0.3744767369, -10.179665546
26.8218200207, 0.0413870194, -0.0183928226, -9.77706320465, 0.4043870194, -0.0023928226, -9.84706320465, -0.0349490711, -0.09063892865, -9.87086292455, 0.1830509289, 0.34636107135, -10.1138629246
26.872013092, 0.04916369285, -0.08000800455, -9.7920183459, 0.41216369285, -0.06400800455, -9.8620183459, -0.01281546205, -0.0373986258, -9.88880909405, 0.20518453795, 0.3996013742, -10.131809094
26.9222102165, 0.0461726646, -0.02975872995, -9.77945602725, 0.4091726646, -0.01375872995, -9.84945602725, -0.0193957242, -0.0350058032, -9.90436244095, 0.1986042758, 0.4019941968, -10.1473624409
26.9724850655, 0.04677087025, -0.04650848815, -9.77825961595, 0.40977087025, -0.03050848815, -9.84825961595, -0.014610079, -0.0924335456, -9.86488086805, 0.203389921, 0.3445664544, -10.107880868
27.0239372253, 0.0425834307, -0.01181256045, -9.74954574475, 0.4055834307, 0.00418743955, -9.81954574475, -0.03554727675, -0.10858509815, -9.88761268275, 0.18245272325, 0.32841490185, -10.1306126828
27.07411623, 0.0270300838, -0.04650848815, -9.7932147572, 0.3900300838, -0.03050848815, -9.8632147572, -0.03435086545, -0.042184271, -9.8798360093, 0.18364913455, 0.394815729, -10.1228360093
27.1242821217, 0.03241393465, -0.0112143548, -9.74595651085, 0.43010986235, -0.00658026215, -9.8297152408, -0.03674368805, -0.04397888795, -9.91513014265, 0.1950150419, 0.4151547211, -10.1700942556
27.1745131016, 0.04557445895, -0.03693719775, -9.77108114815, 0.40857445895, -0.02093719775, -9.84108114815, -0.0193957242, -0.0613268518, -9.8894072997, 0.1986042758, 0.3756731482, -10.1324072997
27.2246921062, 0.04318163635, -0.039928226, -9.7621080634, 0.40618163635, -0.023928226, -9.8321080634, -0.002645966, -0.0314165693, -9.92350502175, 0.215354034, 0.4055834307, -10.1665050217
27.274834156, 0.0389941968, 0.00015155255, -9.77227755945, 0.4019941968, 0.01615155255, -9.84227755945, -0.02597598635, -0.0876479004, -9.878639598, 0.19202401365, 0.3493520996, -10.121639598
27.3250520229, 0.03600316855, 0.02647260115, -9.7573224182, 0.39900316855, 0.04247260115, -9.8273224182, -0.01879751855, -0.06312146875, -9.92230861045, 0.19920248145, 0.37387853125, -10.1653086104
27.3752250671, 0.06232421715, -0.0459102825, -9.7824470555, 0.42532421715, -0.0299102825, -9.8524470555, -0.0170029016, -0.07388917045, -9.8846216545, 0.2009970984, 0.36311082955, -10.1276216545
27.4254300594, 0.0461726646, -0.03574078645, -9.776464999, 0.4091726646, -0.01974078645, -9.846464999, -0.03076163155, -0.04637171055, -9.8941929449, 0.18723836845, 0.39062828945, -10.1371929449
27.4756062031, 0.04318163635, -0.02975872995, -9.7872327007, 0.40618163635, -0.01375872995, -9.8572327007, -0.01042263945, -0.0278273354, -9.90316602965, 0.20757736055, 0.4091726646, -10.1461660296
27.525783062, 0.03002111205, -0.03933002035, -9.78543808375, 0.39302111205, -0.02333002035, -9.85543808375, -0.04033292195, -0.05115735575, -9.91871937655, 0.17766707805, 0.38584264425, -10.1617193765
27.5760481358, 0.0306193177, -0.0662492746, -9.7752685877, 0.3936193177, -0.0502492746, -9.8452685877, -0.0181993129, -0.0589340292, -9.88163062625, 0.1998006871, 0.3780659708, -10.1246306262
27.6262822151, 0.04796728155, -0.05368695595, -9.79142014025, 0.41096728155, -0.03768695595, -9.86142014025, -0.01640469595, -0.0146668111, -9.8846216545, 0.20159530405, 0.4223331889, -10.1276216545
27.6764531136, 0.05036010415, -0.0231784678, -9.76629550295, 0.41336010415, -0.0071784678, -9.83629550295, -0.01042263945, -0.02244348455, -9.88163062625, 0.20757736055, 0.41455651545, -10.1246306262
27.7266600132, 0.031815729, -0.0423210486, -9.764500886, 0.394815729, -0.0263210486, -9.834500886, -0.0158064903, -0.0577376179, -9.8798360093, 0.2021935097, 0.3792623821, -10.1228360093
27.7768511772, 0.04318163635, -0.0566779842, -9.74476009955, 0.382851616, -0.06161518195, -9.81595651085, -0.014610079, -0.05594300095, -9.8918001223, 0.203389921, 0.38105699905, -10.1348001223
27.8281011581, 0.0270300838, -0.0614636294, -9.76390268035, 0.3900300838, -0.0454636294, -9.83390268035, -0.01520828465, -0.04397888795, -9.8918001223, 0.20279171535, 0.39302111205, -10.1348001223
27.8782842159, 0.0294229064, -0.03574078645, -9.78065243855, 0.3924229064, -0.01974078645, -9.85065243855, -0.0289670146, -0.06671070265, -9.89838038445, 0.1890329854, 0.37028929735, -10.1413803844
27.9284601212, 0.0282264951, -0.0506959277, -9.7692865312, 0.3912264951, -0.0346959277, -9.8392865312, -0.02119034115, -0.0433806823, -9.87205933585, 0.19680965885, 0.3936193177, -10.1150593359
27.9786782265, 0.03241393465, -0.0052322983, -9.76629550295, 0.39541393465, 0.0107677017, -9.83629550295, -0.04990421235, -0.04876453315, -9.902567824, 0.16809578765, 0.38823546685, -10.145567824
28.0288460255, 0.02164623295, -0.0542851616, -9.7968039911, 0.38464623295, -0.0382851616, -9.8668039911, -0.01281546205, -0.04158606535, -9.9049606466, 0.20518453795, 0.39541393465, -10.1479606466
28.0790250301, 0.0521547211, -0.04172284295, -9.7716793538, 0.4151547211, -0.02572284295, -9.8416793538, -0.01640469595, -0.0720945535, -9.8834252432, 0.20159530405, 0.3649054465, -10.1264252432
28.1293830872, 0.0330121403, -0.027964113, -9.75911703515, 0.3960121403, -0.011964113, -9.82911703515, -0.01401187335, -0.0529519727, -9.89239832795, 0.20398812665, 0.3840480273, -10.1353983279
28.1796021461, 0.01686058775, -0.02377667345, -9.77467038205, 0.37986058775, -0.00777667345, -9.84467038205, -0.02477957505, -0.00330090375, -9.88521986015, 0.19322042495, 0.43369909625, -10.1282198601
28.2298130989, 0.04677087025, -0.0674456859, -9.7944111685, 0.40977087025, -0.0514456859, -9.8644111685, -0.01042263945, -0.0553447953, -9.9073534692, 0.20757736055, 0.3816552047, -10.1503534692
28.279998064, 0.0366013742, -0.04172284295, -9.79022372895, 0.3996013742, -0.02572284295, -9.86022372895, -0.0313598372, -0.02722912975, -9.91154090875, 0.1866401628, 0.40977087025, -10.1545409087
28.330201149, 0.0473690759, -0.0494995164, -9.78902731765, 0.4103690759, -0.0334995164, -9.85902731765, -0.0313598372, -0.0840586665, -9.90795167485, 0.1866401628, 0.3529413335, -10.1509516748
28.3804271221, 0.0234408499, -0.027964113, -9.7680901199, 0.3864408499, -0.011964113, -9.8380901199, -0.0253777807, -0.0134703998, -9.9324781065, 0.1926222193, 0.4235296002, -10.1754781065
28.4307022095, 0.04078881375, -0.02616949605, -9.80338425325, 0.40378881375, -0.01016949605, -9.87338425325, 0.00871994135, -0.08346046085, -9.9001750014, 0.19680965885, 0.4019941968, -10.1653086104
28.4811830521, 0.0377977855, -0.0949631458, -9.77586679335, 0.4007977855, -0.0789631458, -9.84586679335, -0.00324417165, -0.03799683145, -9.91393373135, 0.21475582835, 0.39900316855, -10.1569337313
28.5313990116, 0.0569403663, -0.0052322983, -9.78184884985, 0.4199403663, 0.0107677017, -9.85184884985, -0.026574192, -0.0876479004, -9.87923780365, 0.191425808, 0.3493520996, -10.1222378037
28.5815911293, 0.05394933805, -0.0028394757, -9.7740721764, 0.41694933805, 0.0131605243, -9.8440721764, -0.00683340555, -0.03680042015, -9.9217104048, 0.21116659445, 0.40019957985, -10.1647104048
28.6317791939, 0.0449762533, -0.03813360905, -9.7728757651, 0.4079762533, -0.02213360905, -9.8428757651, -0.04272574455, -0.01885425065, -9.9241032274, 0.17527425545, 0.41814574935, -10.1671032274
28.6819660664, 0.04557445895, -0.0303569356, -9.81056272105, 0.40857445895, -0.0143569356, -9.88056272105, -0.0086280225, -0.0744873761, -9.8953893562, 0.2093719775, 0.3625126239, -10.1383893562
28.7321050167, 0.0258336725, -0.0339461695, -9.78304526115, 0.3888336725, -0.0179461695, -9.85304526115, -0.014610079, -0.04158606535, -9.90436244095, 0.203389921, 0.39541393465, -10.1473624409
28.7822980881, 0.0533511324, -0.04531207685, -9.788429112, 0.4163511324, -0.02931207685, -9.858429112, -0.0289670146, -0.0362022145, -9.8953893562, 0.1890329854, 0.4007977855, -10.1383893562
28.8324930668, 0.05394933805, -0.0112143548, -9.7740721764, 0.4019941968, -0.0693918554, -9.84467038205, -0.002645966, 0.01105603185, -9.89838038445, 0.215354034, 0.44805603185, -10.1413803844
28.8833291531, 0.02762828945, -0.0530887503, -9.76988473685, 0.39062828945, -0.0370887503, -9.83988473685, -0.0217885468, -0.03321118625, -9.9133355257, 0.1962114532, 0.40378881375, -10.1563355257
28.9335010052, 0.02164623295, -0.016, -9.7752685877, 0.38464623295, -0.0, -9.8452685877, -0.03195804285, -0.0469699162, -9.9169247596, 0.18604195715, 0.3900300838, -10.1599247596
28.983659029, 0.03121752335, -0.0626600407, -9.78783090635, 0.39421752335, -0.0466600407, -9.85783090635, -0.0098244338, -0.04158606535, -9.9372637517, 0.2081755662, 0.39541393465, -10.1802637517
29.033875227, 0.04677087025, -0.04531207685, -9.79142014025, 0.40977087025, -0.02931207685, -9.86142014025, -0.01520828465, -0.0649160857, -9.9085498805, 0.20279171535, 0.3720839143, -10.1515498805
29.0840480328, 0.02523546685, -0.02736590735, -9.7968039911, 0.38823546685, -0.01136590735, -9.8668039911, -0.014610079, -0.0122739885, -9.90555885225, 0.203389921, 0.4247260115, -10.1485588522
29.1342661381, 0.03241393465, -0.03215155255, -9.79261655155, 0.39541393465, -0.01615155255, -9.86261655155, -0.00802981685, -0.0397914484, -9.90675526355, 0.20997018315, 0.3972085516, -10.1497552636
29.184469223, 0.0593331889, -0.0435174599, -9.7836434668, 0.4223331889, -0.0275174599, -9.8536434668, -0.01760110725, -0.0816658439, -9.9037642353, 0.20039889275, 0.3553341561, -10.1467642353
29.2346990108, 0.03959240245, -0.05847260115, -9.78304526115, 0.40259240245, -0.04247260115, -9.85304526115, -0.0349490711, -0.090040723, -9.87564856975, 0.1830509289, 0.346959277, -10.1186485698
29.2848951817, 0.0246372612, -0.01540179435, -9.7728757651, 0.3876372612, 0.00059820565, -9.8428757651, -0.01640469595, -0.0266309241, -9.91752296525, 0.20159530405, 0.4103690759, -10.1605229653
29.3351089954, 0.02403905555, 0.00134796385, -9.7896255233, 0.38703905555, 0.01734796385, -9.8596255233, -0.02717239765, -0.06192505745, -9.9013714127, 0.19082760235, 0.37507494255, -10.1443714127
29.3852851391, 0.04078881375, -0.06206183505, -9.76629550295, 0.40378881375, -0.04606183505, -9.83629550295, 0.00154147355, -0.05713941225, -9.9085498805, 0.21954147355, 0.37986058775, -10.1515498805
29.4354660511, 0.06232421715, -0.0052322983, -9.764500886, 0.42532421715, 0.0107677017, -9.834500886, -0.038538305, -0.05474658965, -9.89838038445, 0.179461695, 0.38225341035, -10.1413803844
29.4856650829, 0.02403905555, -0.04411566555, -9.7776614103, 0.38703905555, -0.02811566555, -9.8476614103, -0.0122172564, -0.03201477495, -9.9013714127, 0.2057827436, 0.40498522505, -10.1443714127
29.5358932018, 0.0533511324, -0.06445465765, -9.752536773, 0.4163511324, -0.04845465765, -9.822536773, -0.0193957242, -0.02962195235, -9.9157283483, 0.1986042758, 0.40737804765, -10.1587283483
29.58613801, 0.0342085516, 0.00374078645, -9.7752685877, 0.3972085516, 0.01974078645, -9.8452685877, -0.0253777807, -0.0469699162, -9.89838038445, 0.1926222193, 0.3900300838, -10.1413803844
29.6363601685, 0.04318163635, -0.04411566555, -9.8027860476, 0.40618163635, -0.02811566555, -9.8727860476, -0.0074316112, -0.03680042015, -9.9061570579, 0.2105683888, 0.40019957985, -10.1491570579
29.6865420341, 0.0282264951, -0.0554815729, -9.7728757651, 0.3912264951, -0.0394815729, -9.8428757651, -0.0158064903, -0.04996094445, -9.90316602965, 0.2021935097, 0.38703905555, -10.1461660296
29.7367172241, 0.0342085516, -0.03933002035, -9.7944111685, 0.3972085516, -0.02333002035, -9.8644111685, -0.00683340555, 0.0128506488, -9.878639598, 0.21116659445, 0.4498506488, -10.121639598
29.7869040966, 0.043779842, -0.0447138712, -9.77227755945, 0.406779842, -0.0287138712, -9.84227755945, -0.01879751855, -0.02722912975, -9.88521986015, 0.19920248145, 0.40977087025, -10.1282198601
29.8371422291, 0.05036010415, -0.0435174599, -9.79500937415, 0.41336010415, -0.0275174599, -9.86500937415, -0.0241813694, 0.00866320925, -9.9348709291, 0.1938186306, 0.44566320925, -10.1778709291
29.8873641491, 0.0377977855, -0.01300897175, -9.76629550295, 0.4007977855, 0.00299102825, -9.83629550295, -0.02358316375, -0.06790711395, -9.9097462918, 0.19441683625, 0.36909288605, -10.1527462918
29.9375681877, 0.0425834307, -0.04172284295, -9.7740721764, 0.4055834307, -0.02572284295, -9.8440721764, -0.026574192, -0.10021021905, -9.8977821788, 0.191425808, 0.33678978095, -10.1407821788
29.9877722263, 0.05394933805, -0.02616949605, -9.7968039911, 0.41694933805, -0.01016949605, -9.8668039911, -0.0277706033, -0.054148384, -9.8941929449, 0.1902293967, 0.382851616, -10.1371929449
30.0382630825, 0.0294229064, -0.0112143548, -9.76988473685, 0.3924229064, 0.0047856452, -9.83988473685, -0.00204776035, -0.04637171055, -9.88641627145, 0.21595223965, 0.39062828945, -10.1294162714
30.0885441303, 0.031815729, -0.03574078645, -9.79979501935, 0.394815729, -0.01974078645, -9.86979501935, -0.0277706033, -0.03440759755, -9.9121391144, 0.1902293967, 0.40259240245, -10.1551391144
30.1387619972, 0.0533511324, -0.03693719775, -9.7944111685, 0.4163511324, -0.02093719775, -9.8644111685, -0.02358316375, -0.02842554105, -9.8965857675, 0.19441683625, 0.40857445895, -10.1395857675
30.1889181137, 0.04677087025, -0.05488336725, -9.776464999, 0.40977087025, -0.03888336725, -9.846464999, -0.0313598372, -0.0505591501, -9.9097462918, 0.1866401628, 0.3864408499, -10.1527462918
30.2390789986, 0.05993139455, -0.0315533469, -9.7944111685, 0.42293139455, -0.0155533469, -9.8644111685, 0.0153002035, -0.06910352525, -9.8965857675, 0.2333002035, 0.36789647475, -10.1395857675
30.2892680168, 0.04078881375, -0.07282953675, -9.7860362894, 0.40378881375, -0.05682953675, -9.8560362894, -0.01760110725, -0.0517555614, -9.89598756185, 0.20039889275, 0.3852444386, -10.1389875618
30.3394892216, 0.04557445895, -0.0710349198, -9.82372324535, 0.40857445895, -0.0550349198, -9.89372324535, -0.01281546205, -0.07029993655, -9.9073534692, 0.20518453795, 0.36670006345, -10.1503534692
30.3896651268, 0.03361034595, 0.0115174599, -9.76031344645, 0.39661034595, 0.0275174599, -9.83031344645, -0.02836880895, -0.0433806823, -9.89359473925, 0.18963119105, 0.3936193177, -10.1365947392
30.4398760796, 0.055743955, -0.03095514125, -9.78304526115, 0.418743955, -0.01495514125, -9.85304526115, -0.0134136677, -0.05953223485, -9.8977821788, 0.2045863323, 0.37746776515, -10.1407821788
30.4900212288, 0.0342085516, -0.0542851616, -9.7633044747, 0.3972085516, -0.0382851616, -9.8333044747, -0.01401187335, -0.10619227555, -9.90436244095, 0.20398812665, 0.33080772445, -10.1473624409
30.540199995, 0.03839599115, -0.0423210486, -9.74954574475, 0.40139599115, -0.0263210486, -9.81954574475, -0.01042263945, -0.07628199305, -9.89598756185, 0.20757736055, 0.36071800695, -10.1389875618
30.5904099941, 0.0413870194, -0.03095514125, -9.7740721764, 0.4043870194, -0.01495514125, -9.8440721764, -0.01640469595, -0.02483630715, -9.91991578785, 0.20159530405, 0.41216369285, -10.1629157879
30.6406011581, 0.03002111205, -0.0506959277, -9.7752685877, 0.39302111205, -0.0346959277, -9.8452685877, -0.0038423773, -0.0517555614, -9.9121391144, 0.2141576227, 0.3852444386, -10.1551391144
30.6908230782, 0.0270300838, -0.0327497582, -9.7920183459, 0.3900300838, -0.0167497582, -9.8620183459, -0.00922622815, -0.05594300095, -9.8678718963, 0.20877377185, 0.38105699905, -10.1108718963
30.7410521507, 0.04078881375, -0.06206183505, -9.78184884985, 0.40378881375, -0.04606183505, -9.85184884985, -0.0110208451, -0.07987122695, -9.9121391144, 0.2069791549, 0.35712877305, -10.1551391144
30.7912111282, 0.0569403663, 0.12098909385, -9.79500937415, 0.4199403663, 0.13698909385, -9.86500937415, -0.0373418937, -0.02005066195, -9.94145119125, 0.1806581063, 0.41694933805, -10.1844511912
30.8414130211, 0.0473690759, -0.03813360905, -9.77586679335, 0.4103690759, -0.02213360905, -9.84586679335, -0.0421275389, -0.01526501675, -9.90316602965, 0.1758724611, 0.42173498325, -10.1461660296
