TIME, IMU1_acc_x, IMU1_acc_y, IMU1_acc_z, IMU1_acc_raw_x, IMU1_acc_raw_y, IMU1_acc_raw_z,IMU2_acc_x, IMU2_acc_y,IMU2_acc_z, IMU2_acc_raw_x, IMU2_acc_raw_y, IMU2_acc_raw_z3.09944152832e-06, 0.0, 0.0, 0.0, 0.0, 0.0, 0.0, 0.0, 0.0, 0.0, 0.0, 0.0, 0.0
0.050243139267, 0.0, 0.0, 0.0, 0.0, 0.0, 0.0, 0.0, 0.0, 0.0, 0.0, 0.0, 0.0
0.10177898407, -0.00640965402049, -0.0359955748137, -9.81668292167, 0.3565305674, -0.03050848815, -9.87099143065, -0.00591748867399, -0.0326822377087, -9.82615180823, 0.18484554585, 0.41336010415, -10.0899346985
0.151935100555, -0.00134948086964, -0.0294389868929, -9.81777011124, 0.36670006345, -0.01974078645, -9.88056272105, -0.00933619209239, -0.0359452252281, -9.82528446712, 0.179461695, 0.41216369285, -10.0725867347
0.202183961868, -0.0020829894384, -0.0272026283777, -9.81674766638, 0.3481556883, -0.01016949605, -9.89372324535, -0.0102724279833, -0.0395773050333, -9.82649073163, 0.215354034, 0.36550365215, -10.073783146
0.252445936203, -0.000822693864108, -0.0285855961515, -9.81652367375, 0.36670006345, 0.0095712904, -9.8895358058, -0.010635963326, -0.0378293573795, -9.82235912964, 0.2117648001, 0.4199403663, -10.0474620974
0.302665948868, -0.00181457497653, -0.0332165781474, -9.81497824563, 0.37268211995, -0.05204389155, -9.88056272105, -0.00927107321035, -0.0428942864617, -9.82379677349, 0.2225325018, 0.3541377448, -10.0630154443
0.352874994278, -0.00606946246509, -0.00599673784748, -9.81368113992, 0.35114671655, 0.1304088317, -9.88774118885, -0.0090411733424, -0.0450193209597, -9.82562846526, 0.227318147, 0.36550365215, -10.0660064725
0.403084993362, -0.00826310479173, 0.00451540958104, -9.81326810203, 0.3385843979, -0.0131605243, -9.882357338, -0.00817304322434, -0.0479562362939, -9.82554304854, 0.20757736055, 0.3756731482, -10.0803634081
0.453289031982, -0.00777462680517, -0.00160299049252, -9.8131504974, 0.35832518435, -0.00418743955, -9.8895358058, -0.00566902339325, -0.0417463686213, -9.8262482592, 0.2201396792, 0.45164526575, -10.0731849404
0.503483057022, -0.00816073789519, -0.00533742573444, -9.81313738441, 0.34157542615, -0.02452643165, -9.8907322171, -0.00524419390103, -0.0478654650818, -9.82603311752, 0.2165504453, 0.36191441825, -10.0683992951
0.553674936295, -0.00933549558469, -0.0228130317244, -9.81423785682, 0.3493520996, -0.06041877065, -9.85902731765, -0.004546654402, -0.0514088148937, -9.82387411249, 0.203389921, 0.38344982165, -10.0624172386
0.603985071182, -0.00795998866019, -0.0351998071575, -9.81027658962, 0.36311082955, -0.0466600407, -9.8656075798, -0.00675182584412, -0.0445594394159, -9.82796250307, 0.19441683625, 0.39541393465, -10.0935239324
0.654210090637, -0.0102849596428, -0.0234820495791, -9.81220932033, 0.34875389395, -0.0275174599, -9.9014999188, -0.00954242969261, -0.042485459066, -9.82747246006, 0.2045863323, 0.4199403663, -10.0683992951
0.704380989075, -0.00874606624557, -0.0271092521526, -9.81310726002, 0.3661018578, -0.0179461695, -9.8895358058, -0.00562164265242, -0.0445501989723, -9.82716187874, 0.21595223965, 0.36430724085, -10.0612208274
0.754577159882, -0.00983294820391, -0.0256505384021, -9.81709837588, 0.36071800695, -0.00059820565, -9.9242317335, -0.00567241590796, -0.0382621855136, -9.82608521285, 0.2129612114, 0.4079762533, -10.0534441539
0.804734945297, -0.0085020933146, -0.0257409266501, -9.81642192976, 0.3613162126, 0.0023928226, -9.88774118885, -0.00628973615985, -0.0320305509843, -9.82751687723, 0.215354034, 0.40498522505, -10.060024416
0.854922056198, -0.00633323494183, -0.0239559532081, -9.81311326537, 0.3625126239, 0.00418743955, -9.86022372895, -0.00810988355948, -0.0332957495158, -9.82314245112, 0.2009970984, 0.3912264951, -10.0426764522
0.905122041702, -0.00473225743749, -0.0204700787287, -9.81568946712, 0.36311082955, 0.00538385085, -9.8907322171, -0.00493683811701, -0.0312586744472, -9.82649862338, 0.21714865095, 0.38823546685, -10.0995059889
0.955283164978, -0.00529874481053, -0.0192359555785, -9.81716492579, 0.36311082955, 0.00658026215, -9.89731247925, -0.0053951747659, -0.0349200099292, -9.82488285838, 0.21834506225, 0.40498522505, -10.0588280047
1.00546002388, -0.00429875236018, -0.0225207283238, -9.81868141273, 0.3601198013, -0.03768695595, -9.8859465719, -0.00649141618104, -0.0378684855341, -9.83000347299, 0.20997018315, 0.40019957985, -10.0636136499
1.05566310883, -0.00651178061224, -0.0241412129493, -9.81771313873, 0.3433700431, -0.0059820565, -9.8895358058, -0.00547962399114, -0.0434442196901, -9.82745370338, 0.20039889275, 0.38225341035, -10.0408818352
1.10583305359, -0.00387657432003, -0.015763256549, -9.81557078921, 0.36909288605, -0.01974078645, -9.88056272105, -0.00281060511984, -0.0395057630216, -9.82779067799, 0.22671994135, 0.36311082955, -10.0522477426
1.15617108345, -0.004563685567, -0.00731375121341, -9.81455577637, 0.3613162126, -0.00897308475, -9.8727860476, 8.9845854734e-05, -0.0361877684898, -9.82555856468, 0.2285145583, 0.4223331889, -10.0672028838
1.20655703545, -0.00611022469027, -0.0173868740349, -9.81356977771, 0.334995164, -0.02931207685, -9.86859860805, -0.00183574167517, -0.0342642910387, -9.82740666921, 0.20398812665, 0.42652062845, -10.1001041946
1.25683307648, -0.00494595431796, -0.0212523092299, -9.81510521536, 0.36909288605, -0.0095712904, -9.88893760015, -0.0037099492951, -0.0341535756908, -9.82541321855, 0.21355941705, 0.4175475437, -10.0725867347
1.3070909977, -0.00558237446854, -0.0277797975532, -9.81275260937, 0.34875389395, -0.05802594805, -9.8608219346, -0.00468027554303, -0.03123473982, -9.8214085773, 0.20039889275, 0.4139583098, -10.0504531256
1.35737299919, -0.00643286995452, -0.0265526035666, -9.81137341949, 0.3529413335, 0.00658026215, -9.87577707585, -0.00557989887735, -0.0299651991042, -9.82201128023, 0.20518453795, 0.41216369285, -10.0689975008
1.4075961113, -0.0061071850618, -0.0341345276208, -9.81328452874, 0.3529413335, -0.04007977855, -9.8739824589, -0.00387373586264, -0.0349886321583, -9.82470789767, 0.2165504453, 0.3732803256, -10.0648100613
1.45779895782, -0.00695966149555, -0.0327168845264, -9.8149508359, 0.35353953915, -0.0035892339, -9.88893760015, -0.00413098822174, -0.0325691617737, -9.82266777668, 0.21475582835, 0.4127618985, -10.0612208274
1.50800299644, -0.0063879534854, -0.0320890325354, -9.81539127211, 0.3613162126, -0.02333002035, -9.88415195495, -0.00521274288161, -0.0302325212027, -9.82900730616, 0.1974078645, 0.3804587934, -10.1174521584
1.55819511414, -0.00673964563861, -0.0291645982783, -9.8158857266, 0.36071800695, -0.0466600407, -9.8691968137, -0.00537796427704, -0.0301268776086, -9.82770411131, 0.19441683625, 0.406779842, -10.0821580251
1.60835313797, -0.00585679930777, -0.0269684094869, -9.81476667853, 0.36430724085, 0.01256231865, -9.8751788702, -0.0072217969219, -0.0306889680245, -9.82873778213, 0.19441683625, 0.42771703975, -10.0809616138
1.65854907036, -0.00341584270726, -0.0258037479902, -9.81915243344, 0.37387853125, -0.02572284295, -9.90329453575, -0.0101093657271, -0.0290867453749, -9.82350563249, 0.18484554585, 0.40139599115, -10.0372926013
1.70974612236, -0.00507279495688, -0.0312271806891, -9.82100792702, 0.35114671655, -0.03409772205, -9.906285564, -0.0100851389434, -0.0291166500222, -9.82531906812, 0.21595223965, 0.41455651545, -10.0522477426
1.75996208191, -0.00290944117008, -0.0284716036577, -9.8206444752, 0.3732803256, 0.00777667345, -9.88654477755, -0.00788206462617, -0.0269514401075, -9.82583680401, 0.23509482045, 0.39661034595, -10.0755777629
1.81021809578, -0.00272564399959, -0.0151885045307, -9.8158658583, 0.3529413335, 0.11545369045, -9.87458066455, -0.00734124779268, -0.0349451421897, -9.8199688846, 0.1986042758, 0.36789647475, -10.0420782466
1.86039113998, -0.00402918742716, -0.0191712048299, -9.81775955962, 0.35114671655, -0.0275174599, -9.9014999188, -0.00783698136007, -0.0306974435536, -9.81884712227, 0.2057827436, 0.40259240245, -10.0845508477
1.91057896614, -0.0041757850155, -0.0221818380382, -9.81544699537, 0.37746776515, -0.0275174599, -9.87218784195, -0.00969216527916, -0.0329995818984, -9.82163540569, 0.20039889275, 0.36670006345, -10.0666046782
1.9607591629, -0.00349387339955, -0.026602873709, -9.81655147376, 0.37866417645, 0.0035892339, -9.86979501935, -0.00972920645961, -0.0363847447087, -9.82067356442, 0.2177468566, 0.3924229064, -10.0785687912
2.0110270977, -0.00316192117264, -0.0288954083843, -9.81627502688, 0.36550365215, -0.04845465765, -9.90209812445, -0.0114940601523, -0.0388924379815, -9.82694333999, 0.20039889275, 0.3888336725, -10.1102736906
2.06118702888, -0.0019005289899, -0.028851801107, -9.81221632289, 0.36071800695, -0.03768695595, -9.85184884985, -0.0108148714695, -0.0427145360032, -9.82370914985, 0.18723836845, 0.382851616, -10.073783146
2.11137294769, -0.00348048539932, -0.0290300996437, -9.81263793149, 0.3553341561, -0.00897308475, -9.8895358058, -0.00859278910226, -0.0445759001846, -9.82239119397, 0.2285145583, 0.370887503, -10.04985492
2.16157412529, -0.000933359982905, -0.0444853917656, -9.81545182215, 0.37028929735, -0.0406779842, -9.8919286284, -0.00962526901455, -0.0389578761354, -9.82193879162, 0.19322042495, 0.4223331889, -10.04985492
2.21171402931, -0.00465321097915, -0.0484709780916, -9.81565948367, 0.34277183745, -0.05682953675, -9.88654477755, -0.00941186395079, -0.0419218393642, -9.82503098429, 0.2117648001, 0.37507494255, -10.0803634081
2.26187705994, -0.00426664293855, -0.0395391395801, -9.81413768268, 0.3684946804, 0.00299102825, -9.89611606795, -0.00814360994537, -0.0454894703617, -9.82467675844, 0.20997018315, 0.4139583098, -10.0558369765
2.31208300591, -0.00400321853323, -0.0388294165984, -9.8148702053, 0.35473595045, -0.02093719775, -9.88175913235, -0.00863644611625, -0.0504427411975, -9.82563956421, 0.2069791549, 0.3696910917, -10.0648100613
2.36233711243, -0.00460938650541, -0.0348627149477, -9.81221529195, 0.36430724085, -0.0047856452, -9.86381296285, -0.00801271175316, -0.041180707201, -9.8265689883, 0.21236300575, 0.44805603185, -10.0582297991
2.41254711151, -0.00712342998105, -0.0323686671213, -9.81360333837, 0.35473595045, -0.00658026215, -9.8644111685, -0.00624725671606, -0.0367316340007, -9.82178519987, 0.21954147355, 0.3888336725, -10.0701939121
2.46276402473, -0.00671801382315, -0.0319924201887, -9.81624396748, 0.35234312785, -0.01495514125, -9.90090171315, -0.00750119778601, -0.0349082120236, -9.82109002292, 0.1830509289, 0.4007977855, -10.0325069561
2.51302599907, -0.00665283722125, -0.0319927450549, -9.81336991371, 0.3529413335, -0.00777667345, -9.846464999, -0.00580103640166, -0.0285139897791, -9.82261466731, 0.22313070745, 0.42412780585, -10.0636136499
2.56330609322, -0.00499874701559, -0.0289376748247, -9.81082411884, 0.38344982165, 0.0023928226, -9.87218784195, -0.0100247782913, -0.0360040813432, -9.81811107379, 0.19202401365, 0.3672982691, -10.0648100613
2.61351299286, -0.00658952666942, -0.0224082335921, -9.81200412805, 0.35952159565, -0.0131605243, -9.87697348715, -0.0111710836737, -0.0391702394256, -9.8224173892, 0.1974078645, 0.40019957985, -10.0845508477
2.6636941433, -0.00754776606223, -0.0215555746561, -9.81108419862, 0.3553341561, -0.0203389921, -9.88056272105, -0.0103170145477, -0.0393480896957, -9.82276261524, 0.2141576227, 0.37507494255, -10.0731849404
2.71392202377, -0.0101311122535, -0.0291780339377, -9.81092493203, 0.3182454058, -0.0562313311, -9.89491965665, -0.00802998482508, -0.0372255669227, -9.82726619008, 0.2189432679, 0.394815729, -10.0941221381
2.76408100128, -0.00707248080185, -0.032052076283, -9.81290197527, 0.382851616, -0.0263210486, -9.90209812445, -0.00823334283082, -0.0359842700749, -9.82732424194, 0.21116659445, 0.4570291166, -10.0666046782
2.81426095963, -0.0069706699211, -0.0359362643826, -9.80912267207, 0.3649054465, -0.01854437515, -9.8632147572, -0.00962345214041, -0.0338562931577, -9.83480178731, 0.21834506225, 0.40737804765, -10.1048898398
2.86447310448, -0.00697114773409, -0.0359828723664, -9.80746407712, 0.3577269787, -0.02811566555, -9.8919286284, -0.00570151725274, -0.0329321272743, -9.83625758843, 0.24346969955, 0.4247260115, -10.0803634081
2.91462302208, -0.00786529306205, -0.0318817717681, -9.80972574446, 0.34396824875, -0.02213360905, -9.8919286284, -0.00625531791474, -0.0321600948506, -9.83309126203, 0.2117648001, 0.40618163635, -10.0707921177
2.96481609344, -0.00576358822876, -0.0297974359462, -9.80874219722, 0.3625126239, -0.0071784678, -9.87936630975, -0.00742397856594, -0.038646943598, -9.83651712849, 0.22911276395, 0.37268211995, -10.0779705855
3.01500701904, -0.00731100426192, -0.0366519546606, -9.80745709378, 0.3517449222, -0.0251246373, -9.87338425325, -0.00449005367957, -0.0419517218833, -9.83177717594, 0.22313070745, 0.406779842, -10.048060303
3.06522893906, -0.00820992964665, -0.0366104379436, -9.81113988617, 0.34755748265, -0.0490528633, -9.8883393945, -0.00344575846645, -0.0413498441134, -9.83056537859, 0.2201396792, 0.37866417645, -10.073783146
3.11543297768, -0.00636118554071, -0.0331432554675, -9.81283791194, 0.3553341561, -0.01854437515, -9.8883393945, -0.00585872674544, -0.0391502498889, -9.83035579922, 0.20757736055, 0.370887503, -10.0636136499
3.16563916206, -0.00545453372447, -0.0304124579007, -9.81135876578, 0.3577269787, 0.011964113, -9.8620183459, -0.00471589917531, -0.041090622782, -9.82657258661, 0.2201396792, 0.4091726646, -10.0749795573
3.21578907967, -0.00489686905494, -0.0271868416337, -9.81651133516, 0.3601198013, 0.0035892339, -9.88654477755, -0.0057126747974, -0.0412619764683, -9.82859959077, 0.21355941705, 0.3852444386, -10.0660064725
3.26597595215, -0.0042385270885, -0.0274721104928, -9.81708598458, 0.3553341561, -0.0203389921, -9.9110712092, -0.00476509467939, -0.0428489777633, -9.82995364914, 0.21954147355, 0.4151547211, -10.0815598194
3.31614208221, -0.00100736261419, -0.0236652901311, -9.81596022359, 0.3720839143, -0.0203389921, -9.87577707585, -0.00411719591381, -0.0372431197243, -9.83265362755, 0.21834506225, 0.44207397535, -10.1126665132
3.36637210846, -0.00740064658379, -0.0304264849844, -9.81450946451, 0.3266202849, -0.00897308475, -9.87099143065, -0.00358389633592, -0.0379809750417, -9.83302309833, 0.2261217357, 0.39302111205, -10.1048898398
3.41653013229, -0.00557266833287, -0.0415159674653, -9.81839567704, 0.3601198013, -0.1339980656, -9.89731247925, -0.00275364541359, -0.0394914659973, -9.83332731828, 0.22671994135, 0.3720839143, -10.0660064725
3.46671414375, -0.00630536685463, -0.0380258604724, -9.81813373699, 0.3649054465, -0.011964113, -9.8847501606, -0.00320576878851, -0.0353969154428, -9.83378310842, 0.2165504453, 0.4354937132, -10.0654082669
3.51691508293, -0.00566607961367, -0.0417017219793, -9.81872725705, 0.36191441825, -0.05084748025, -9.88774118885, -0.00576393382732, -0.0307296059438, -9.82922535123, 0.1974078645, 0.44087756405, -10.060024416
3.5671710968, -0.00323446827307, -0.0377515956173, -9.81404737966, 0.38344982165, -0.01256231865, -9.858429112, -0.00615855926263, -0.03223001992, -9.82793010521, 0.2081755662, 0.43010986235, -10.0654082669
3.61744713783, -0.00375938064769, -0.035676619886, -9.81629855604, 0.35473595045, -0.03888336725, -9.9026963301, -0.00543134597773, -0.0312559225617, -9.82572043697, 0.21595223965, 0.4175475437, -10.0516495369
3.66765904427, -0.00216140089742, -0.0352519350495, -9.81888492427, 0.3792623821, -0.01375872995, -9.88654477755, -0.00518438460062, -0.0346613735808, -9.82511356683, 0.20279171535, 0.3924229064, -10.0869436703
3.7178800106, -0.00292010635591, -0.0345970597531, -9.81749513146, 0.3517449222, -0.0203389921, -9.8835537493, -0.0056831423325, -0.0360428676384, -9.82537124513, 0.203389921, 0.4103690759, -10.0564351822
3.76807308197, -0.00400819516021, -0.0293221617395, -9.82253708941, 0.35952159565, 0.00897308475, -9.9098747979, -0.00204132252359, -0.0352796694217, -9.82631743135, 0.2237289131, 0.4103690759, -10.0540423596
3.8182489872, -0.00703615045577, -0.0208986253565, -9.82357003666, 0.34277183745, 0.0346959277, -9.89372324535, -0.00522499976861, -0.0357241455291, -9.82719582742, 0.19920248145, 0.39541393465, -10.0606226217
3.86845898628, -0.00736516418767, -0.0262071714683, -9.82498100137, 0.35593236175, -0.02093719775, -9.9349994352, -0.00451962931857, -0.0325009193326, -9.82669297076, 0.215354034, 0.4199403663, -10.0845508477
3.91862416267, -0.00461474284261, -0.0213574777214, -9.82126985885, 0.3661018578, -0.00538385085, -9.88295554365, -0.00541406060284, -0.0303759529791, -9.82264966119, 0.20757736055, 0.40618163635, -10.0474620974
3.96888494492, -0.00809882072646, -0.0227716045281, -9.81618716671, 0.346959277, 0.0143569356, -9.86381296285, -0.00417756577202, -0.0177450928411, -9.82800039729, 0.21714865095, 0.418743955, -10.1192467754
4.01984405518, -0.00513918595294, -0.0194032440057, -9.81642261035, 0.37387853125, 0.00897308475, -9.88175913235, -0.00231328095584, -0.0169807576153, -9.83082024719, 0.227318147, 0.43489550755, -10.0660064725
4.07001614571, -0.00419619268294, -0.0190055912352, -9.81541962548, 0.3409772205, -0.0023928226, -9.8787681041, -0.00211211245125, -0.0276842913263, -9.82768935389, 0.2213360905, 0.37627135385, -10.0486585087
4.12019705772, -0.00312661208568, -0.021957960179, -9.81419771081, 0.3613162126, -0.00777667345, -9.8775716928, -0.000377053280017, -0.0335679030138, -9.8245084788, 0.2321037922, 0.37268211995, -10.0468638917
4.17039513588, -0.00587140061316, -0.0281601061991, -9.81510714588, 0.34277183745, 0.00059820565, -9.88534836625, -0.00170140052803, -0.0336441142037, -9.82485577243, 0.22193429615, 0.38703905555, -10.0719885291
4.2205491066, -0.00328113715266, -0.0289723195142, -9.81475217996, 0.3684946804, -0.0215354034, -9.89372324535, -0.000947667153706, -0.030995555654, -9.82348147379, 0.21714865095, 0.38584264425, -10.0606226217
4.27073597908, -0.00415012377366, -0.0352174530705, -9.81464411927, 0.3517449222, -0.04725824635, -9.8847501606, -0.0018565854715, -0.0335640837507, -9.82233838161, 0.21595223965, 0.4043870194, -10.0468638917
4.32095909119, -0.00181036003029, -0.0295632618735, -9.81396517918, 0.3744767369, 0.01016949605, -9.9038927414, -0.00446392840037, -0.0302507003367, -9.82755453121, 0.20159530405, 0.39661034595, -10.0995059889
4.37117505074, -0.00298870458704, -0.0299234318591, -9.81109338712, 0.34875389395, -0.0083748791, -9.88415195495, -0.0037476280413, -0.0361372229452, -9.82711512608, 0.2201396792, 0.3720839143, -10.060024416
4.42148995399, -0.0035018720162, -0.0277276501243, -9.81214060406, 0.3613162126, -0.0107677017, -9.88175913235, -0.00593761313211, -0.0347143564514, -9.82713288786, 0.20877377185, 0.41455651545, -10.0558369765
4.47197914124, -0.00477757325062, -0.0328274158132, -9.80876004719, 0.34995030525, -0.0490528633, -9.8847501606, -0.00630522155601, -0.0374915670411, -9.8290228482, 0.21834506225, 0.3720839143, -10.0911311099
4.52218294144, -0.000331327496505, -0.0369223336822, -9.8079240901, 0.38105699905, -0.02931207685, -9.86500937415, -0.00677646401787, -0.0353861704868, -9.82865740417, 0.21714865095, 0.42532421715, -10.0522477426
4.57232308388, -0.000438821083902, -0.0383566715537, -9.80782679581, 0.36191441825, -0.0191425808, -9.88654477755, -0.00669857509168, -0.0426410204471, -9.83384026192, 0.20757736055, 0.38225341035, -10.0881400816
4.62248015404, 0.000407387542539, -0.0374708197115, -9.80752109781, 0.38344982165, -0.023928226, -9.8787681041, -0.00338620535176, -0.0437147570131, -9.83007097378, 0.2380858487, 0.418743955, -10.0725867347
4.67272114754, 0.00115861915146, -0.0388888738898, -9.81289661554, 0.37387853125, -0.0382851616, -9.90808018095, -0.00468125343492, -0.0411627473136, -9.82783739213, 0.20638094925, 0.35712877305, -10.0683992951
4.72292709351, 0.00236479844361, -0.0286253691135, -9.81561228716, 0.36191441825, -0.0526420972, -9.8799645154, -0.00502520439811, -0.0362453605737, -9.8239535358, 0.21355941705, 0.4151547211, -10.037890807
4.77312111855, 0.000602545754326, -0.0134847686369, -9.81404868189, 0.3481556883, 0.14895320685, -9.8847501606, -0.00402878196097, -0.0415791392742, -9.82465295609, 0.21595223965, 0.36191441825, -10.0624172386
4.82327198982, -0.000578765635846, -0.0202621119098, -9.81574985009, 0.3541377448, -0.0227318147, -9.88295554365, -0.00625623341305, -0.0403534982469, -9.82949908444, 0.2081755662, 0.3792623821, -10.0767741743
4.87346315384, -0.000244352629536, -0.0233585935414, -9.81565562199, 0.3672982691, -0.03529413335, -9.8835537493, -0.00736489955457, -0.040497955149, -9.82569918594, 0.19202401365, 0.42053857195, -10.0516495369
4.92371511459, -0.00213898254742, -0.0255855870076, -9.81556733312, 0.34995030525, -0.01256231865, -9.8931250397, -0.0062469660887, -0.0407465704827, -9.82847171941, 0.2105683888, 0.3912264951, -10.0983095776
4.97397112846, -0.00441921496417, -0.0220857988083, -9.81721168279, 0.35353953915, 0.0299102825, -9.9038927414, -0.00612114529331, -0.0421764669482, -9.83313181672, 0.2105683888, 0.4151547211, -10.0803634081
5.02415299416, -0.00474893574998, -0.0187520284687, -9.8187898569, 0.3625126239, 0.023928226, -9.8955178623, -0.0103900757836, -0.0435538227131, -9.83717809371, 0.19082760235, 0.39182470075, -10.1030952228
5.07441401482, -0.00626982695728, -0.0231807076262, -9.81884066302, 0.3625126239, -0.0059820565, -9.87816989845, -0.0110132577397, -0.0424002212086, -9.8374478554, 0.20159530405, 0.3912264951, -10.0953185494
5.12481212616, -0.0041542116894, -0.00853620774723, -9.8192538968, 0.36191441825, 0.00897308475, -9.9014999188, -0.0112779098242, -0.042933468093, -9.83581665517, 0.2021935097, 0.3804587934, -10.048060303
5.17526316643, -0.00399858536032, -0.012881129781, -9.81996199931, 0.35892339, -0.01256231865, -9.9074819753, -0.0117215057316, -0.0489763008724, -9.83639674254, 0.1998006871, 0.37268211995, -10.0636136499
5.22572493553, -0.00589775783936, -0.0209991421996, -9.81861880862, 0.34277183745, -0.0741775006, -9.8979106849, -0.0120011421101, -0.0496299835592, -9.8344089225, 0.18723836845, 0.3888336725, -10.0462656861
5.27589297295, -0.00728618174979, -0.00783100948733, -9.81270041281, 0.3505485109, -0.0095712904, -9.8440721764, -0.00678413345533, -0.0415093014143, -9.83373501118, 0.23748764305, 0.3816552047, -10.0701939121
5.32607007027, -0.00638946855135, -0.0138404207655, -9.81090674087, 0.35353953915, -0.01615155255, -9.8883393945, -0.00503098490853, -0.0419542322468, -9.83808261534, 0.2225325018, 0.4019941968, -10.0905329042
5.37623500824, -0.00641064377709, -0.0187492473081, -9.81298893539, 0.3613162126, -0.0191425808, -9.89611606795, -0.00701851036791, -0.0458743122219, -9.83685124963, 0.19202401365, 0.4271188341, -10.0785687912
5.426445961, -0.0068991580116, -0.0225774834818, -9.8149563577, 0.35234312785, -0.0023928226, -9.87816989845, -0.00836934459456, -0.0460904631372, -9.83532822929, 0.1830509289, 0.4007977855, -10.0875418759
5.47660303116, -0.00270772553726, -0.023328386386, -9.81459180417, 0.36670006345, -0.02452643165, -9.8883393945, -0.00849687404933, -0.0435638884029, -9.83217686979, 0.18963119105, 0.4091726646, -10.097711372
5.52683711052, -0.00335566244261, -0.0262201625455, -9.81618646422, 0.35114671655, -0.0215354034, -9.89133042275, -0.00609353084441, -0.0321094488318, -9.82932858131, 0.21475582835, 0.4115654872, -10.0528459482
5.57700610161, -0.00503003099901, -0.0233630770174, -9.81091854935, 0.35593236175, -0.00538385085, -9.86979501935, -0.00523510360298, -0.0332759079812, -9.83074153934, 0.20877377185, 0.40498522505, -10.0797652025
5.62718009949, -0.0100603900599, -0.0321850359146, -9.8104428575, 0.32482566795, -0.01734796385, -9.8835537493, -0.00239007646862, -0.0314308501313, -9.82805191623, 0.21595223965, 0.4331008906, -10.0594262104
5.67779016495, -0.00996959392204, -0.0369837407318, -9.81023306723, 0.3768695595, -0.01615155255, -9.870393225, 0.00109870467458, -0.0395703535395, -9.8229799134, 0.2105683888, 0.3457628657, -10.0396854239
5.72800111771, -0.0102975846499, -0.0401513695668, -9.81181514381, 0.33798619225, -0.03170489945, -9.88175913235, -0.000468216833093, -0.041060019236, -9.82180051245, 0.1998006871, 0.4031906081, -10.0821580251
5.7781920433, -0.00851598761574, -0.0392659720688, -9.81012498888, 0.3684946804, -0.011964113, -9.8919286284, -0.00206995261147, -0.0416446517082, -9.82155364842, 0.20518453795, 0.35712877305, -10.0468638917
5.82837796211, -0.00703840787975, -0.0331884077253, -9.80926897513, 0.34157542615, 0.01495514125, -9.8835537493, -0.00331598589029, -0.0427461828092, -9.82373197897, 0.21475582835, 0.37028929735, -10.0731849404
5.8785469532, -0.00568660786764, -0.0273106079114, -9.81142436672, 0.35892339, 0.0191425808, -9.89252683405, -0.00433441103392, -0.0434846329217, -9.82088591391, 0.2105683888, 0.36550365215, -10.0654082669
5.9288611412, -0.00837173652279, -0.0292234087717, -9.80780900744, 0.35593236175, -0.023928226, -9.88534836625, -0.00483314821798, -0.0402585000196, -9.82182122308, 0.20877377185, 0.4235296002, -10.0761759686
5.97917795181, -0.00849484535396, -0.0156262104106, -9.80857149529, 0.36191441825, 0.1339980656, -9.88295554365, -0.00614639792506, -0.0415575973199, -9.8221540975, 0.1986042758, 0.39302111205, -10.0713903234
6.02935600281, -0.00850827180864, -0.0202278084943, -9.80882936261, 0.3649054465, -0.03170489945, -9.8787681041, -0.00863806156652, -0.0400859495836, -9.82377950851, 0.215354034, 0.41575292675, -10.0660064725
6.07953214645, -0.00777991513849, -0.0224095710739, -9.80714274767, 0.3637090352, -0.023928226, -9.87816989845, -0.00799009204188, -0.0421835346987, -9.82673133694, 0.21475582835, 0.3864408499, -10.0797652025
6.129956007, -0.00735598072081, -0.0154532330166, -9.81035949168, 0.34995030525, -0.02452643165, -9.882357338, -0.00735539356853, -0.0336616965465, -9.82943496116, 0.2201396792, 0.3996013742, -10.1018988115
6.18052697182, -0.00596719705186, -0.0191403705869, -9.81116979055, 0.3601198013, -0.0299102825, -9.89850889055, -0.00550347329051, -0.0313148822331, -9.82940995962, 0.2141576227, 0.3768695595, -10.0887382872
6.23073506355, -0.00599681918451, -0.0176523737569, -9.81104846529, 0.3577269787, 0.02452643165, -9.87458066455, -0.00688078704181, -0.0327579322228, -9.82998193197, 0.21714865095, 0.3924229064, -10.0779705855
6.28096795082, -0.0065579983107, -0.0260263191893, -9.8142625928, 0.32721849055, -0.0083748791, -9.90449094705, -0.00667652084953, -0.036273786511, -9.8265697473, 0.2249253244, 0.418743955, -10.0408818352
6.33122014999, -0.00685821982017, -0.0267713695729, -9.81424157161, 0.3517449222, -0.011964113, -9.8895358058, -0.00737033721412, -0.0346809249129, -9.82661655393, 0.1986042758, 0.3972085516, -10.073783146
6.38149499893, -0.00528285406684, -0.015404765327, -9.8185076969, 0.35593236175, 0.1351944769, -9.89252683405, -0.00614967563244, -0.0368124433365, -9.82527859431, 0.20997018315, 0.38344982165, -10.0546405652
6.43168115616, -0.00361299024047, -0.0185505219113, -9.81470535547, 0.3720839143, -0.0287138712, -9.88415195495, -0.00784304288375, -0.0341830622494, -9.8250851825, 0.20518453795, 0.3936193177, -10.03609619
6.48185896873, -0.00407196549778, -0.0228515679481, -9.81592822591, 0.3326023414, -0.03170489945, -9.8931250397, -0.00717862932684, -0.0360323050195, -9.82740009921, 0.20997018315, 0.3780659708, -10.0947203437
6.53204894066, -0.00440186106071, -0.026000420074, -9.81537538039, 0.3637090352, -0.03050848815, -9.89491965665, -0.00859060476474, -0.0360645878208, -9.8298853515, 0.19800607015, 0.4115654872, -10.0965149607
6.58237695694, -0.00375619035745, -0.0211732564386, -9.8133287765, 0.3565305674, 0.011964113, -9.870393225, -0.00576225916174, -0.0352955034347, -9.82902735721, 0.2213360905, 0.3672982691, -10.0654082669
6.6328561306, -0.00605459036863, -0.028147379455, -9.81402264571, 0.3541377448, -0.03050848815, -9.86261655155, -0.00401562655651, -0.0413541221331, -9.82803294053, 0.22313070745, 0.3397808092, -10.0648100613
6.68316698074, -0.00383630069659, -0.0281604152806, -9.81271321586, 0.36550365215, -0.0059820565, -9.8799645154, -0.0057357754981, -0.035262040812, -9.82424683842, 0.191425808, 0.466600407, -10.0648100613
6.73332309723, -0.00436650604074, -0.0316764594083, -9.81547511179, 0.3481556883, -0.04965106895, -9.9014999188, -0.00590843286896, -0.0360568256322, -9.82247976244, 0.21475582835, 0.3984049629, -10.0743813517
6.78350710869, -0.005914616935, -0.0330648333657, -9.81670127995, 0.34396824875, -0.00059820565, -9.90808018095, -0.00792665108036, -0.0392190471231, -9.8210065565, 0.19920248145, 0.3780659708, -10.0648100613
6.8337020874, -0.00554154203647, -0.0314432558866, -9.81310492803, 0.3577269787, -0.0634097989, -9.88056272105, -0.00469139718318, -0.038492412741, -9.82674454803, 0.21595223965, 0.37986058775, -10.0935239324
6.883893013, -0.00515552793254, -0.0347662683671, -9.81173058229, 0.35892339, -0.02811566555, -9.87218784195, -0.00604952575638, -0.0439795110103, -9.82805624878, 0.2021935097, 0.38464623295, -10.0689975008
6.93412899971, -0.00258762120785, -0.0325286939204, -9.8115984195, 0.3744767369, 0.0071784678, -9.88415195495, -0.00571391634066, -0.0436503795213, -9.82895721087, 0.2057827436, 0.3613162126, -10.0743813517
6.9843120575, -0.000747865983026, -0.0278944826046, -9.81320867328, 0.3625126239, -0.011964113, -9.8979106849, -0.00568708839759, -0.0384339193956, -9.82860139086, 0.2237289131, 0.3900300838, -10.0683992951
7.03450894356, -0.00122479387725, -0.0290861775102, -9.8155055448, 0.35832518435, -0.02213360905, -9.8967142736, -0.00692183826155, -0.0424605455015, -9.82604284225, 0.20638094925, 0.37028929735, -10.0564351822
7.08478307724, -0.00220332906507, -0.0268869424953, -9.81348365606, 0.35832518435, -0.0179461695, -9.8799645154, -0.00581630176336, -0.0421986813687, -9.82931239434, 0.2069791549, 0.3888336725, -10.0791669969
7.13498497009, -0.00214089821399, -0.0294460551156, -9.81308809481, 0.35832518435, -0.0179461695, -9.87816989845, -0.00484527631494, -0.0447012578323, -9.82486909151, 0.20877377185, 0.37028929735, -10.0558369765
7.18518209457, -0.00469811613233, -0.0271246048471, -9.8130210357, 0.33918260355, -0.0071784678, -9.88415195495, -0.0025310954446, -0.0436607170231, -9.82559794613, 0.23270199785, 0.4079762533, -10.0773723799
7.23535895348, -0.00182230192069, -0.0160976657412, -9.81279323817, 0.3816552047, -0.04007977855, -9.88295554365, -0.00554394910013, -0.0410890646392, -9.82587725144, 0.1854437515, 0.39780675725, -10.0839526421
7.28554415703, -0.00589683012368, -0.0207078903185, -9.81441828049, 0.34636107135, -0.0550349198, -9.9026963301, -0.00714723084044, -0.0405675202338, -9.82681432596, 0.18484554585, 0.40019957985, -10.0851490533
7.33570814133, -0.00472546450318, -0.0221344290799, -9.81294993125, 0.3553341561, -0.01136590735, -9.86620578545, -0.00689019617076, -0.0428966379764, -9.82501406364, 0.21475582835, 0.3756731482, -10.04985492
7.3859910965, -0.00665402752708, -0.0248871345623, -9.81231091756, 0.3421736318, -0.0311066938, -9.8727860476, -0.00558728174881, -0.0449746491559, -9.82468645984, 0.21116659445, 0.3888336725, -10.0660064725
7.43615698814, -0.00682115095279, -0.0174663559545, -9.81508302016, 0.370887503, -0.02691925425, -9.8799645154, -0.00627971724939, -0.0360619226379, -9.82752071616, 0.21714865095, 0.41096728155, -10.0660064725
7.48634409904, -0.00372142182026, -0.0182525543802, -9.81133483004, 0.37986058775, 0.0227318147, -9.85543808375, -0.0070549083545, -0.0334624552882, -9.82755433629, 0.19800607015, 0.4211367776, -10.0905329042
7.53660297394, -0.00419215455387, -0.0307625566646, -9.81199657593, 0.3505485109, -0.04845465765, -9.8739824589, -0.00978192121783, -0.035195558591, -9.82420960107, 0.20757736055, 0.40618163635, -10.0695957064
7.58683013916, -0.00314726942713, -0.0271500932708, -9.81366831187, 0.36430724085, 0.00538385085, -9.9134640318, -0.00831841270944, -0.0331794443652, -9.82304182378, 0.22073788485, 0.39541393465, -10.0528459482
7.63700604439, -0.00367788455528, -0.0293663066658, -9.81354274892, 0.370887503, -0.0047856452, -9.86979501935, -0.00941448092248, -0.0378749876837, -9.8197187825, 0.1986042758, 0.37387853125, -10.0528459482
7.68719506264, -0.000918147608777, -0.0281607069988, -9.81425072166, 0.37866417645, -0.00418743955, -9.8895358058, -0.00831988889521, -0.0350088047098, -9.82059468998, 0.20159530405, 0.41336010415, -10.0372926013
7.73740100861, -0.0025230443906, -0.0344866950767, -9.81519245083, 0.35832518435, -0.01136590735, -9.87816989845, -0.00953878742581, -0.0302295245685, -9.82514559287, 0.19920248145, 0.3888336725, -10.0707921177
7.78798413277, -0.00109538958438, -0.0349702367542, -9.8169628532, 0.36430724085, -0.0550349198, -9.89252683405, -0.00880941083541, -0.030269619316, -9.82801134491, 0.21116659445, 0.39182470075, -10.0755777629
7.83819413185, -0.00230190150885, -0.0343210276819, -9.81400604965, 0.35952159565, -0.03170489945, -9.8787681041, -0.0102943894027, -0.0294765722644, -9.82874137704, 0.21355941705, 0.40977087025, -10.0672028838
7.88839793205, 0.000345768039547, -0.0332952133853, -9.81462525126, 0.35892339, -0.03768695595, -9.88175913235, -0.00791179613385, -0.0274120809966, -9.82917625171, 0.227318147, 0.4043870194, -10.0725867347
7.9386651516, 0.00122236642753, -0.0300629613506, -9.81716144777, 0.3744767369, -0.00538385085, -9.9098747979, -0.00557728980892, -0.0278140103842, -9.83264008746, 0.2356930261, 0.39302111205, -10.0935239324
7.98886609077, -0.000538178212698, -0.040599379446, -9.81456172698, 0.36430724085, -0.08793623055, -9.8751788702, -0.00377008847673, -0.0318663943877, -9.82950561231, 0.227318147, 0.38105699905, -10.0540423596
8.03903412819, -0.00244764200491, -0.0385636575528, -9.81492445763, 0.3505485109, -0.02213360905, -9.88415195495, -0.00409655824628, -0.0324904542345, -9.82742968926, 0.2141576227, 0.39182470075, -10.0636136499
8.08919811249, -0.00218286849997, -0.0325178380068, -9.81623730391, 0.3517449222, 0.0143569356, -9.8955178623, -0.00141615900649, -0.0376463387209, -9.8247168944, 0.21355941705, 0.38105699905, -10.0564351822
8.1394431591, -0.00376301891098, -0.032149140945, -9.81712722975, 0.34995030525, -0.0023928226, -9.89970530185, -0.00459897618976, -0.0351885044965, -9.82517556365, 0.2057827436, 0.45762732225, -10.0689975008
8.1896340847, -0.0035907736666, -0.0314217782139, -9.81744794973, 0.36311082955, -0.0418743955, -9.88056272105, -0.00575126651048, -0.0410032024321, -9.82258674206, 0.2081755662, 0.3792623821, -10.0408818352
8.23983597755, -0.0014689946294, -0.0221349964782, -9.81805144568, 0.3565305674, 0.04127618985, -9.8680004024, -0.0105867016906, -0.0442227747995, -9.82896489859, 0.191425808, 0.3864408499, -10.0851490533
8.29008197784, -0.00460252846632, -0.0249533967764, -9.81721482954, 0.3481556883, -0.0215354034, -9.8799645154, -0.0122963083064, -0.0533289827431, -9.8307819515, 0.2057827436, 0.37148570865, -10.0701939121
8.34028816223, -0.00617446195485, -0.0321491641302, -9.81901390436, 0.3457628657, -0.0442672181, -9.918249677, -0.0106728905091, -0.0490728729878, -9.83364409104, 0.20877377185, 0.40857445895, -10.0983095776
8.3904671669, -0.00648773480692, -0.0323709540205, -9.81754576683, 0.3577269787, -0.00059820565, -9.8727860476, -0.00950669824235, -0.0466334299316, -9.83165285381, 0.2225325018, 0.3732803256, -10.0689975008
8.4407119751, -0.00308644929561, -0.0354698474036, -9.81566863893, 0.3732803256, -0.03409772205, -9.87936630975, -0.00825101556831, -0.0509805147766, -9.83200804824, 0.2213360905, 0.3601198013, -10.0773723799
8.49092316628, -0.00167083394175, -0.0338593229804, -9.81320816502, 0.36311082955, 0.0059820565, -9.86979501935, -0.00791111047145, -0.0446252454028, -9.82436961592, 0.20997018315, 0.4414757697, -10.0193464318
8.54110598564, -0.00164338481632, -0.0346834014466, -9.8156427204, 0.36430724085, -0.02333002035, -9.894321451, -0.00824473162137, -0.0439401241758, -9.82432597272, 0.20039889275, 0.3684946804, -10.0821580251
8.59136605263, -0.00224926695722, -0.0371574860673, -9.81651999393, 0.34995030525, -0.0263210486, -9.8871429832, -0.00622383711331, -0.0372715142389, -9.8213235217, 0.2249253244, 0.41455651545, -10.0438728635
8.64157915115, -0.00433724057685, -0.036625102654, -9.819085023, 0.33559336965, -0.02572284295, -9.9003035075, -0.00620206781678, -0.0387074307695, -9.82148774889, 0.203389921, 0.41455651545, -10.0719885291
8.69178915024, -0.00340519355452, -0.0381040977952, -9.81637946703, 0.35892339, -0.03170489945, -9.8775716928, -0.00374225189378, -0.042973883269, -9.82362753912, 0.2093719775, 0.3816552047, -10.0713903234
8.74196100235, -0.00421471712016, -0.0346999327286, -9.81367109415, 0.3445664544, 0.0011964113, -9.84945602725, -0.00404841443296, -0.0475018251209, -9.82505888911, 0.21236300575, 0.38464623295, -10.0755777629
8.79217195511, -0.00301001163683, -0.0395995913446, -9.81803364604, 0.3744767369, -0.0107677017, -9.90209812445, -0.0042365855247, -0.0550099382939, -9.82601489267, 0.2237289131, 0.36670006345, -10.1036934285
8.84243392944, -0.00336246959215, -0.0284280281806, -9.81584033138, 0.36550365215, -0.03170489945, -9.8787681041, -0.00626295644371, -0.0499967939368, -9.82506980019, 0.21834506225, 0.40857445895, -10.0707921177
8.8926949501, -0.00286405828064, -0.0281065840928, -9.81621944047, 0.346959277, -0.02093719775, -9.8895358058, -0.0077412327124, -0.0480398321153, -9.82525204537, 0.19800607015, 0.3936193177, -10.0695957064
8.94286799431, -0.00475147275782, -0.0275770218392, -9.81653250089, 0.35473595045, 0.0059820565, -9.8955178623, -0.00982398085205, -0.0481476150294, -9.82439467846, 0.2009970984, 0.4019941968, -10.04985492
8.99307012558, -0.00118872302795, -0.0202617806612, -9.81421299532, 0.3900300838, 0.01615155255, -9.8787681041, -0.00931742341539, -0.042671327738, -9.82445157555, 0.2249253244, 0.4055834307, -10.0845508477
9.04333496094, -0.00120501852414, -0.0167840451365, -9.81147956194, 0.3637090352, 0.01375872995, -9.86500937415, -0.00822332614497, -0.0430573514778, -9.82488288865, 0.21954147355, 0.38464623295, -10.0773723799
9.09399700165, -0.0016542067066, -0.02391155223, -9.81407736054, 0.34995030525, 0.0143569356, -9.8751788702, -0.00613279847648, -0.0438741868179, -9.82284297342, 0.2201396792, 0.3876372612, -10.0552387708
9.14418101311, -0.00203071454134, -0.0259856270933, -9.81437269014, 0.3672982691, -0.0131605243, -9.8907322171, -0.00584716986545, -0.037385602561, -9.82122299066, 0.215354034, 0.47318066915, -10.0354979844
9.19436097145, -0.00432172864549, -0.0273784890206, -9.81492297405, 0.34636107135, -0.00059820565, -9.8895358058, -0.00300763405651, -0.0419763143119, -9.82652097706, 0.23389840915, 0.3876372612, -10.0773723799
9.24457097054, -0.000402857106561, -0.0301513518095, -9.81361213306, 0.3780659708, -0.0203389921, -9.88056272105, -0.0023724333395, -0.0405844146957, -9.82631989263, 0.21954147355, 0.4055834307, -10.0636136499
9.29472208023, 0.000923790192617, -0.0128279944729, -9.81535383926, 0.3661018578, -0.0143569356, -9.8751788702, 0.00115583373381, -0.0425954440533, -9.82754857688, 0.2213360905, 0.394815729, -10.0606226217
9.34491109848, -0.00057065298548, -0.0211116360691, -9.81567583044, 0.34755748265, -0.05204389155, -9.88534836625, -0.00273101610412, -0.0397775392961, -9.82792984481, 0.20039889275, 0.4211367776, -10.0719885291
9.39506411552, 0.000221805722035, -0.023533363451, -9.81657891261, 0.35712877305, 0.0047856452, -9.870393225, -0.00608723124275, -0.0427346499573, -9.8306484542, 0.1902293967, 0.41575292675, -10.0809616138
9.44526815414, 0.00373611564085, -0.0272765032678, -9.81799017434, 0.382851616, 0.0047856452, -9.8991070962, -0.00434465656363, -0.0440896997414, -9.82883157224, 0.23270199785, 0.36191441825, -10.0510513313
9.49546504021, 0.00103023263258, -0.0317573638666, -9.81931532203, 0.3302095188, -0.03170489945, -9.88056272105, -0.00300554732104, -0.0454169983658, -9.83399295328, 0.22193429615, 0.37627135385, -10.0869436703
9.54562306404, 0.000167609549388, -0.0357684528934, -9.81637814981, 0.34277183745, -0.03290131075, -9.8715896363, -0.00498907224954, -0.0433670866063, -9.83355058748, 0.19322042495, 0.38225341035, -10.0743813517
9.59583306313, -0.002182162742, -0.0393285019432, -9.81801898228, 0.36071800695, -0.0370887503, -9.88056272105, -0.00315604495413, -0.0383567064411, -9.8332580738, 0.21954147355, 0.4319044793, -10.0701939121
9.64599013329, -0.00345827015266, -0.0290038839124, -9.81678916335, 0.3661018578, 0.02931207685, -9.8799645154, -0.00232090397531, -0.0340478125425, -9.83523921402, 0.20159530405, 0.37866417645, -10.0660064725
9.69618010521, -0.00377914464466, -0.0299189899481, -9.81708370727, 0.3601198013, -0.0047856452, -9.8883393945, -0.0022211502345, -0.0420304324434, -9.83241848245, 0.215354034, 0.3649054465, -10.0701939121
9.7463991642, -0.00458940218117, -0.0288895371129, -9.81809995519, 0.35353953915, -0.00538385085, -9.8799645154, -0.00377345112894, -0.0384464996432, -9.83195223505, 0.2189432679, 0.41694933805, -10.0851490533
9.79659509659, -0.00319181081248, -0.0266461241582, -9.81453852059, 0.3684946804, -0.0059820565, -9.858429112, -0.0060246336071, -0.0356022056497, -9.83406412686, 0.19441683625, 0.40259240245, -10.0743813517
9.84678316116, -0.0035274202401, -0.0197420024641, -9.81399847271, 0.3637090352, -0.06640082715, -9.88056272105, -0.00912745413075, -0.0364639643937, -9.83368002276, 0.1854437515, 0.36909288605, -10.0761759686
9.89697599411, -0.00472050057749, -0.0244388010719, -9.81458396559, 0.36311082955, -0.0346959277, -9.8859465719, -0.0105220941894, -0.0382387591464, -9.82953440022, 0.21116659445, 0.37986058775, -10.0749795573
9.9471590519, -0.00499226764589, -0.0222703307001, -9.81544675156, 0.3756731482, -0.01615155255, -9.89491965665, -0.00861318698013, -0.0397937358465, -9.82947560177, 0.22671994135, 0.38823546685, -10.0588280047
9.99735307693, -0.00373554046667, -0.0261756800051, -9.81472217569, 0.3649054465, -0.04127618985, -9.87936630975, -0.0107097255039, -0.0375201197617, -9.82830628778, 0.2045863323, 0.4199403663, -10.0666046782
10.0475251675, -0.0027175914515, -0.0277059115176, -9.81532569847, 0.3756731482, -0.03409772205, -9.8799645154, -0.00798718195466, -0.0376106949825, -9.82972205577, 0.2213360905, 0.3720839143, -10.0606226217
10.0978140831, -0.00251639369934, -0.0269563423789, -9.81445487196, 0.36311082955, -0.0, -9.8967142736, -0.00522964205745, -0.0340082575521, -9.83133344033, 0.2117648001, 0.38584264425, -10.0785687912
10.1481170654, -0.00373407149747, -0.0325914902119, -9.81190280016, 0.36909288605, -0.01256231865, -9.88774118885, -0.00418241235203, -0.0321279996762, -9.83018202452, 0.22791635265, 0.42053857195, -10.0767741743
10.1983339787, -0.0034697706586, -0.0300453467835, -9.81453664903, 0.34995030525, -0.01734796385, -9.89491965665, -0.00195407047678, -0.0369655133551, -9.82764522634, 0.21834506225, 0.39302111205, -10.0660064725
10.2485439777, -0.00321418263047, -0.0274784258551, -9.81449346744, 0.3529413335, 0.0059820565, -9.89252683405, -0.00292301853619, -0.0392791117941, -9.8239343504, 0.2177468566, 0.4079762533, -10.0630154443
10.298789978, -0.00245680712968, -0.0304959320411, -9.81458411353, 0.3756731482, -0.0191425808, -9.894321451, -0.00312760698382, -0.0367084585503, -9.82296244009, 0.22193429615, 0.41096728155, -10.0672028838
10.3489570618, -0.00342219467954, -0.0315493911112, -9.81295353826, 0.3601198013, -0.00179461695, -9.87816989845, -0.006198678916, -0.0415489356263, -9.82006470061, 0.2009970984, 0.39780675725, -10.0743813517
10.3991401196, -0.00330126927393, -0.0324055767906, -9.81175152593, 0.3672982691, -0.03649054465, -9.87577707585, -0.00805407336146, -0.0415918826128, -9.81604736405, 0.215354034, 0.3864408499, -10.0606226217
10.4492931366, -0.000607696385591, -0.030592368546, -9.81245348788, 0.3876372612, 0.02691925425, -9.88175913235, -0.00846085995101, -0.0401037650943, -9.82160686335, 0.2057827436, 0.39062828945, -10.0839526421
10.4994680882, -0.0031043030764, -0.0315975597142, -9.81495843937, 0.34755748265, -0.03888336725, -9.89372324535, -0.00687545239988, -0.0397636934576, -9.82152972653, 0.2141576227, 0.3996013742, -10.0725867347
10.5496239662, -0.00329502344838, -0.0300338245895, -9.8174492763, 0.35832518435, 0.0107677017, -9.90090171315, -0.00734602801841, -0.0397809310097, -9.82031479415, 0.20638094925, 0.39062828945, -10.0725867347
10.5998051167, -0.00495808031077, -0.0249445159782, -9.81821991033, 0.3397808092, 0.0047856452, -9.8955178623, -0.00697619994857, -0.0394786963409, -9.82024204522, 0.2105683888, 0.39661034595, -10.0636136499
10.6499950886, -0.00500595498572, -0.0215641000659, -9.8123323405, 0.3696910917, 0.01734796385, -9.85184884985, -0.00776861075334, -0.0366727141687, -9.81797366603, 0.20997018315, 0.4199403663, -10.0450692748
10.7001919746, -0.00816138490894, -0.0222955559468, -9.81020747791, 0.3433700431, -0.02811566555, -9.86859860805, -0.0118202357102, -0.0392572984871, -9.81782321881, 0.18125631195, 0.3433700431, -10.0522477426
10.7504360676, -0.00447614455711, -0.0306303421205, -9.81349756877, 0.3744767369, -0.03768695595, -9.8979106849, -0.00733779636469, -0.0319872940818, -9.82028849919, 0.23030917525, 0.430708068, -10.0821580251
10.8006660938, -0.00523173884476, -0.0202473833061, -9.81087015615, 0.35114671655, 0.0227318147, -9.87816989845, -0.0068950028329, -0.0289715769142, -9.81871119436, 0.1974078645, 0.45403808835, -10.0719885291
10.8509161472, -0.00447986133576, -0.0250395853619, -9.81277984007, 0.3744767369, -0.0107677017, -9.8835537493, -0.00410762513315, -0.029872815592, -9.82041264158, 0.2464607278, 0.4103690759, -10.0791669969
10.9011311531, -0.00237556438102, 0.0170980961204, -9.81441389713, 0.3565305674, 0.13818550515, -9.89731247925, -0.00415538410036, -0.0336345442247, -9.82467429518, 0.2129612114, 0.3840480273, -10.0929257268
10.9513361454, -0.00249537312762, 0.010516337089, -9.8150401005, 0.36311082955, 0.13220344865, -9.8871429832, -0.0020620135983, -0.0357674671145, -9.82862859722, 0.22911276395, 0.39780675725, -10.0839526421
11.0015439987, -0.00411186056338, 0.0030614822161, -9.81380654679, 0.35114671655, -0.0263210486, -9.8907322171, -0.00464355388912, -0.0375669193333, -9.83155042522, 0.1998006871, 0.406779842, -10.0935239324
11.0518119335, -0.0052532553313, -0.0109336948585, -9.81754980507, 0.35473595045, -0.00538385085, -9.89970530185, -0.00505364364819, -0.041853988355, -9.82760005423, 0.21714865095, 0.33918260355, -10.0648100613
11.1027851105, -0.00587914474135, -0.0119381672309, -9.82031996781, 0.3493520996, 0.011964113, -9.9134640318, -0.00939558197738, -0.0416563562398, -9.8320196029, 0.1902293967, 0.3804587934, -10.0989077833
11.1530070305, -0.005518716971, -0.018201443324, -9.81617496328, 0.3553341561, -0.01615155255, -9.86142014025, -0.00920787128118, -0.0451724143057, -9.83143771681, 0.2189432679, 0.3816552047, -10.0606226217
11.2032091618, -0.00635063833046, -0.0183029581767, -9.81874098664, 0.34755748265, -0.0035892339, -9.90808018095, -0.00961184916118, -0.0459652204062, -9.83146790548, 0.1866401628, 0.3696910917, -10.0606226217
11.2534370422, -0.00527849290217, -0.0198394747682, -9.82026189322, 0.36909288605, -0.00897308475, -9.9026963301, -0.00728334586855, -0.04389489525, -9.82974059209, 0.22432711875, 0.3792623821, -10.0486585087
11.3036489487, -0.00525248366633, -0.0254396580266, -9.81889084584, 0.36071800695, -0.02931207685, -9.88893760015, -0.00426430207928, -0.0455292232928, -9.8285617078, 0.2117648001, 0.3481556883, -10.0929257268
11.35384202, -0.00595030437073, -0.0234905895326, -9.8176554614, 0.34755748265, -0.0059820565, -9.8775716928, -0.00508144484621, -0.0416214974517, -9.82772156714, 0.20518453795, 0.39900316855, -10.0821580251
11.4040989876, -0.00720347563879, -0.0223604982899, -9.81739657502, 0.3541377448, -0.00777667345, -9.8979106849, -0.00409826494993, -0.0419019040644, -9.82553357496, 0.20279171535, 0.4366901245, -10.0552387708
11.4542789459, -0.00871003428343, -0.00863201226913, -9.81631209844, 0.35234312785, 0.1387837108, -9.89970530185, -0.00265484101875, -0.0379154127291, -9.82926588073, 0.20997018315, 0.41455651545, -10.0845508477
11.5044519901, -0.00876886654008, -0.012759747702, -9.81459758286, 0.3457628657, 0.0179461695, -9.87218784195, -0.00503401325219, -0.0367105427601, -9.82940460972, 0.20877377185, 0.4295116567, -10.085747259
11.5546081066, -0.00848750756046, -0.0178021174486, -9.81669636418, 0.34636107135, -0.0227318147, -9.90329453575, -0.00510670524627, -0.0405800638502, -9.82870940257, 0.227318147, 0.39182470075, -10.0695957064
11.6048309803, -0.00961155155597, -0.0188774625239, -9.81663167038, 0.3457628657, 0.035892339, -9.88295554365, -0.00732510815798, -0.0507193640946, -9.82922305495, 0.1998006871, 0.3266202849, -10.0642118556
11.6550040245, -0.00643780298561, -0.0306486229226, -9.81690662704, 0.37986058775, -0.0550349198, -9.88893760015, -0.00739345205527, -0.0478601921075, -9.82857564972, 0.21954147355, 0.4079762533, -10.0749795573
11.7051899433, -0.00490044203534, -0.0328723658578, -9.81332640847, 0.3601198013, -0.0, -9.8691968137, -0.00908166016927, -0.0455674096276, -9.83044871374, 0.22552353005, 0.4031906081, -10.0683992951
11.7554399967, -0.00399017482963, -0.0371202587438, -9.81416521675, 0.36430724085, -0.0562313311, -9.8931250397, -0.00953385409711, -0.0467551225774, -9.83365881759, 0.20398812665, 0.394815729, -10.0815598194
11.8057129383, -0.002068411206, -0.0363377200925, -9.81537705447, 0.3696910917, -0.0107677017, -9.8871429832, -0.00941558460216, -0.0406822716227, -9.83248432405, 0.21475582835, 0.43609191885, -10.0809616138
11.8559119701, -0.00128945001586, -0.0324496250489, -9.81730380796, 0.3565305674, -0.01375872995, -9.906285564, -0.00821310585875, -0.0375638613559, -9.83212520789, 0.2069791549, 0.3960121403, -10.0594262104
11.9060671329, -0.00239711349941, -0.0283949672688, -9.82041635746, 0.36191441825, -0.0047856452, -9.9098747979, -0.00710879797643, -0.0350927604038, -9.83612900857, 0.2093719775, 0.39780675725, -10.1018988115
11.9562280178, -0.00550983822002, -0.0393679453697, -9.81841854336, 0.32721849055, -0.07836494015, -9.86261655155, -0.00942536778941, -0.0341310736081, -9.83386902693, 0.1842473402, 0.4103690759, -10.0678010895
12.0064320564, -0.00732526257672, -0.0459051094269, -9.81834966656, 0.3385843979, -0.13938191645, -9.88295554365, -0.00995582662542, -0.0356611811126, -9.8349816136, 0.21116659445, 0.394815729, -10.0821580251
12.056581974, -0.0107734938118, -0.0477555649939, -9.8182057063, 0.3373879866, -0.01615155255, -9.89252683405, -0.00862510393748, -0.0369455883069, -9.83078520339, 0.20039889275, 0.3505485109, -10.0408818352
12.1069331169, -0.00884305967258, -0.0399632830341, -9.82041455768, 0.3601198013, 0.035892339, -9.8967142736, -0.00755487035086, -0.0393826136351, -9.82981571933, 0.2356930261, 0.406779842, -10.0791669969
12.1571500301, -0.00839721460041, -0.0354851863723, -9.81942327501, 0.34755748265, -0.0131605243, -9.87936630975, -0.0100261541775, -0.0377364778623, -9.82807689406, 0.21475582835, 0.38823546685, -10.0486585087
12.2074029446, -0.00809673864183, -0.0324769195156, -9.81736888225, 0.3553341561, 0.0382851616, -9.87577707585, -0.0072899198243, -0.0375287166145, -9.82648539804, 0.23030917525, 0.38703905555, -10.0516495369
12.2576711178, -0.00905613813115, -0.035842784491, -9.81737645726, 0.34516466005, -0.02452643165, -9.8859465719, -0.00799412107556, -0.0321652442792, -9.83226464612, 0.1962114532, 0.4462614149, -10.0851490533
12.3087649345, -0.00699736527723, -0.0352790377217, -9.81625532702, 0.36789647475, 0.0023928226, -9.8871429832, -0.00851536013171, -0.0333689587456, -9.83378974216, 0.1962114532, 0.3840480273, -10.0929257268
12.3590271473, -0.0082660608557, -0.0305814376768, -9.81654314009, 0.34995030525, -0.0155533469, -9.918249677, -0.00949584220571, -0.0303991821539, -9.83309818497, 0.22313070745, 0.3912264951, -10.0570333878
12.4092099667, -0.0105448422341, -0.0419345999147, -9.81821244497, 0.3314059301, -0.02333002035, -9.8919286284, -0.00901390746713, -0.0330929853286, -9.8306184463, 0.20877377185, 0.39780675725, -10.0582297991
12.4593961239, -0.00745555987657, -0.0392223771026, -9.81863209273, 0.3493520996, -0.00897308475, -9.9074819753, -0.00600564241594, -0.0308500416914, -9.82898272024, 0.2057827436, 0.406779842, -10.0624172386
12.5096001625, -0.00491126543302, -0.0343255788766, -9.82008395831, 0.36071800695, 0.01615155255, -9.90449094705, -0.00817887045191, -0.0301022478575, -9.83226797294, 0.19800607015, 0.4103690759, -10.0881400816
12.559841156, -0.00649345934225, -0.031262462845, -9.81785019722, 0.33559336965, -0.0095712904, -9.870393225, -0.00707378009755, -0.0391695202126, -9.83431885785, 0.215354034, 0.3637090352, -10.0755777629
12.6100749969, -0.00605444541015, -0.0342485718829, -9.81876462446, 0.35832518435, -0.04247260115, -9.86261655155, -0.00927464159736, -0.0412720616178, -9.8346587862, 0.20638094925, 0.3960121403, -10.0851490533
12.6602380276, -0.00468563530322, -0.0358062706852, -9.81976060094, 0.35593236175, -0.00179461695, -9.88295554365, -0.00905008900836, -0.0449508665094, -9.83004005989, 0.20877377185, 0.34037901485, -10.0624172386
12.710463047, -0.00625538583105, -0.0350353835441, -9.81920376897, 0.3361915753, -0.03649054465, -9.87816989845, -0.0104970257311, -0.0442005209207, -9.82660314947, 0.2093719775, 0.4438685923, -10.0642118556
12.7606489658, -0.00550642325915, -0.0284216503642, -9.8188780223, 0.3601198013, 0.0143569356, -9.8883393945, -0.00879595240469, -0.0461743636968, -9.82681110727, 0.21475582835, 0.39062828945, -10.0743813517
12.8108921051, -0.00553386156491, -0.0293097934745, -9.81960718887, 0.35593236175, -0.02333002035, -9.89611606795, -0.0074300471233, -0.0457273130224, -9.82657875531, 0.2189432679, 0.3744767369, -10.0450692748
12.8611450195, -0.00354652295052, -0.0313307581981, -9.81608415357, 0.3577269787, -0.04486542375, -9.87458066455, -0.00936327344323, -0.0435761211852, -9.82856340977, 0.1890329854, 0.406779842, -10.073783146
12.9113259315, -0.00307894412242, -0.0339094420075, -9.81729629875, 0.36191441825, -0.0215354034, -9.89133042275, -0.0102225791995, -0.0404103722475, -9.82919453163, 0.21714865095, 0.4211367776, -10.0678010895
12.9615981579, -0.00232757632504, -0.0310976591069, -9.81425415069, 0.36311082955, -0.00658026215, -9.88534836625, -0.0074927464323, -0.0403365621719, -9.82870739866, 0.20279171535, 0.394815729, -10.1036934285
13.011811018, -0.000602065287286, -0.0333976006926, -9.81657371759, 0.37627135385, 0.0107677017, -9.88654477755, -0.00562669322316, -0.0460535315297, -9.83191335721, 0.2129612114, 0.3696910917, -10.085747259
13.0619871616, 9.5698042798e-05, -0.0275018260965, -9.81677759096, 0.3637090352, -0.00299102825, -9.8895358058, -0.00591961454169, -0.0408851196146, -9.83395562535, 0.19680965885, 0.40139599115, -10.0911311099
13.1129641533, -0.0011857452606, -0.0264456496886, -9.81687900508, 0.3373879866, -0.0095712904, -9.87338425325, -0.00511217756727, -0.0385836023088, -9.8342980192, 0.23389840915, 0.3912264951, -10.0713903234
13.1631801128, -0.00348562092773, -0.0368615445366, -9.82058224965, 0.36071800695, -0.07238288365, -9.8955178623, -0.00149348396674, -0.0322020522348, -9.82884040181, 0.2261217357, 0.43010986235, -10.0426764522
13.2133481503, -0.00374147820746, -0.0307323466216, -9.81899558821, 0.37148570865, 0.01734796385, -9.88534836625, -0.00174236583556, -0.0275662681022, -9.82532716854, 0.2069791549, 0.4235296002, -10.0408818352
13.2635350227, -0.00495453272264, -0.0325095741814, -9.81553181608, 0.3672982691, -0.01974078645, -9.86500937415, -0.00467258664297, -0.0302033195784, -9.82760912862, 0.20039889275, 0.37866417645, -10.0749795573
13.3137130737, -0.00312471569834, -0.027314927651, -9.81410314145, 0.36909288605, 0.01734796385, -9.88056272105, -0.00562750937681, -0.031528553365, -9.82806264051, 0.20518453795, 0.37148570865, -10.0803634081
13.3638720512, -0.000947982058587, -0.029975204945, -9.81286073625, 0.370887503, -0.01974078645, -9.88295554365, -0.00543207370729, -0.0345508491153, -9.82505812116, 0.2057827436, 0.3840480273, -10.0683992951
13.4141049385, -0.00206286028296, -0.0342770477149, -9.81463747427, 0.36071800695, -0.03888336725, -9.90808018095, -0.00569832675741, -0.0385914297379, -9.82531437002, 0.20039889275, 0.3888336725, -10.0821580251
13.4642651081, -0.000644873722694, -0.0335681187521, -9.81814044155, 0.3720839143, -0.02333002035, -9.9098747979, -0.004681688089, -0.0461713807222, -9.82698155339, 0.1998006871, 0.334995164, -10.0827562307
13.5144381523, -0.000398801945944, -0.0335383670561, -9.82014331181, 0.36670006345, 0.0334995164, -9.88295554365, -0.00563389640698, -0.0495253724709, -9.82562075701, 0.20279171535, 0.4019941968, -10.0462656861
13.5646550655, -0.00104972902421, -0.0344712836, -9.82006377801, 0.35832518435, -0.0011964113, -9.88774118885, -0.00502431523415, -0.0425193941945, -9.82530948671, 0.2249253244, 0.4498506488, -10.0630154443
13.614866972, -0.000795038215603, -0.0268412375578, -9.82068879359, 0.3732803256, 0.0454636294, -9.8931250397, -0.0076663244328, -0.0407248861176, -9.82820521192, 0.2021935097, 0.3756731482, -10.0755777629
13.6650600433, -0.00166978322764, -0.0220296564318, -9.82000910756, 0.3553341561, 0.0382851616, -9.870393225, -0.00591086075957, -0.0439154307607, -9.82678076131, 0.2093719775, 0.3672982691, -10.060024416
13.7152481079, -0.00163170396285, -0.0242343051949, -9.81705491929, 0.38703905555, 0.0215354034, -9.87936630975, -0.00817443061567, -0.0411892565481, -9.82570767978, 0.20039889275, 0.37986058775, -10.0534441539
13.7654099464, -0.000581012517316, -0.0253210552276, -9.81396153497, 0.3601198013, -0.00179461695, -9.8871429832, -0.0107960590164, -0.0400435508967, -9.8251850246, 0.203389921, 0.42652062845, -10.0761759686
13.8156330585, -0.00302184681953, -0.0270256295609, -9.81624098595, 0.35892339, -0.0083748791, -9.88774118885, -0.00897834880076, -0.0357124989683, -9.82576412109, 0.20997018315, 0.4055834307, -10.0683992951
13.8658151627, 0.000860609327765, -0.0233748720897, -9.81637356275, 0.4031906081, 0.0490528633, -9.8991070962, -0.0120503110844, -0.0402809067721, -9.82992029005, 0.1866401628, 0.35832518435, -10.1132647189
13.9160010815, 0.000573072011341, -0.00673400205832, -9.81506442796, 0.3541377448, 0.01974078645, -9.882357338, -0.0122971485689, -0.0344467655031, -9.82833557884, 0.203389921, 0.4510470601, -10.085747259
13.9661829472, -0.00374382268523, -0.0116265441932, -9.81893699008, 0.33320054705, -0.0610169763, -9.88534836625, -0.0124352186997, -0.0324016535722, -9.83512748642, 0.2021935097, 0.42891345105, -10.1294162714
14.0163841248, -0.00427365268204, -0.0101723552135, -9.82144956973, 0.3445664544, 0.0131605243, -9.89252683405, -0.0117716719868, -0.034565435765, -9.8326988706, 0.203389921, 0.4019941968, -10.0372926013
14.0665881634, -0.00552673525481, -0.019360224613, -9.81790760835, 0.36071800695, -0.0011964113, -9.89731247925, -0.0100439699043, -0.0400117966531, -9.82911270887, 0.20757736055, 0.40498522505, -10.0486585087
14.1167719364, -0.00177662120295, -0.0208083286208, -9.81771176084, 0.3565305674, -0.02213360905, -9.882357338, -0.00398746397875, -0.03743363649, -9.82506748905, 0.22911276395, 0.3744767369, -10.0390872183
14.1670751572, -0.000855692248892, -0.0216773990198, -9.81795663442, 0.370887503, -0.0059820565, -9.89013401145, -0.00689110519479, -0.0400172149234, -9.82828905804, 0.2117648001, 0.3936193177, -10.0666046782
14.2173340321, -0.000140923164343, -0.0250584671511, -9.8191191864, 0.35832518435, -0.0418743955, -9.9026963301, -0.006434591027, -0.0347767676779, -9.82146824267, 0.20518453795, 0.418743955, -10.0606226217
14.2674870491, -0.00114827193746, -0.0287023291549, -9.81843468213, 0.3804587934, -0.0418743955, -9.88893760015, -0.00373349603033, -0.0324884863055, -9.818691283, 0.23150558655, 0.43728833015, -10.0486585087
14.3176879883, -0.00460595357184, -0.028508229577, -9.81684927868, 0.34875389395, -0.06041877065, -9.88774118885, -0.00205527942557, -0.0351801374205, -9.81829681155, 0.2225325018, 0.3852444386, -10.0468638917
14.3678431511, -0.00554027406769, -0.0226022526223, -9.81920817429, 0.346959277, 0.00299102825, -9.90209812445, -0.00470988388721, -0.0382995576941, -9.81935914472, 0.19800607015, 0.4151547211, -10.0558369765
14.4180121422, -0.00464232477065, -0.0140060600703, -9.81417692027, 0.37028929735, -0.05204389155, -9.8787681041, -0.00588535852478, -0.0406869118051, -9.82097449008, 0.20877377185, 0.37387853125, -10.0576315934
14.4681839943, -0.00426564642172, -0.020295180479, -9.81290398088, 0.35353953915, -0.0311066938, -9.870393225, -0.00438452958307, -0.0407440919052, -9.8234722327, 0.23389840915, 0.3744767369, -10.0887382872
14.5184061527, -0.0031290311056, -0.0154890645025, -9.81315306007, 0.38225341035, -0.0287138712, -9.8799645154, -0.00268431156379, -0.0391931987007, -9.82553129655, 0.19680965885, 0.3720839143, -10.0546405652
14.5705850124, -0.000640659258129, -0.003734003289, -9.81155915357, 0.35832518435, 0.1459621786, -9.87697348715, -0.00548010262015, -0.0424432619345, -9.8250331112, 0.2141576227, 0.38344982165, -10.0743813517
14.6209030151, -4.32400905847e-05, -0.0117295501696, -9.81112456707, 0.3421736318, -0.0287138712, -9.8799645154, -0.00634739993982, -0.0358556659024, -9.82634695391, 0.2309073809, 0.4163511324, -10.0851490533
14.6711161137, -0.00117097926374, -0.0207879422988, -9.81038546706, 0.37268211995, -0.05682953675, -9.8751788702, -0.00352217693223, -0.036071614525, -9.82733919178, 0.2285145583, 0.39182470075, -10.0791669969
14.7213101387, 0.000370670671374, -0.0240716548686, -9.81232742134, 0.35832518435, 0.01136590735, -9.88295554365, -0.00407952569161, -0.0346188605647, -9.8246076991, 0.21834506225, 0.3924229064, -10.0420782466
14.771476984, -0.000826765717119, -0.0200567181384, -9.81346314641, 0.35593236175, -0.0191425808, -9.8955178623, -0.00295164883178, -0.0329709794644, -9.82728443609, 0.21714865095, 0.42652062845, -10.1024970172
14.8217000961, -0.00103147423237, -0.0203986042011, -9.81316929402, 0.34636107135, -0.01974078645, -9.87936630975, -0.00379087756874, -0.0335789320647, -9.82508378591, 0.2225325018, 0.3960121403, -10.0672028838
14.8718571663, -0.00318931294422, -0.0238041474614, -9.81359528185, 0.3517449222, -0.01495514125, -9.8919286284, -0.00274782057368, -0.0326416621674, -9.82537105081, 0.21714865095, 0.4043870194, -10.0749795573
14.9221539497, 0.000555475593966, -0.0265915188011, -9.81394414633, 0.370887503, -0.0083748791, -9.8560362894, -0.00210645898731, -0.032394008997, -9.82392745812, 0.2368894374, 0.42891345105, -10.0707921177
14.9724080563, -0.000827113414887, -0.0301484248304, -9.81553896466, 0.3625126239, -0.0346959277, -9.87816989845, -0.000863002607224, -0.0316220539175, -9.8254932493, 0.2261217357, 0.41575292675, -10.0947203437
15.0225901604, -0.00162278178715, -0.0272234742894, -9.81822350513, 0.3577269787, -0.0155533469, -9.9026963301, 0.000240853902784, -0.0314515121014, -9.82198682905, 0.2249253244, 0.42891345105, -10.0546405652
15.0726959705, -0.00123357506809, -0.0137490350504, -9.81616376845, 0.36909288605, -0.0071784678, -9.87936630975, 0.000781092404255, -0.0338975161341, -9.82536899743, 0.227318147, 0.3649054465, -10.0833544364
15.1230249405, -0.00218053154716, -0.0176941676128, -9.81836577229, 0.35593236175, -0.0179461695, -9.8895358058, 0.00106913417795, -0.0383732969611, -9.82451931992, 0.22313070745, 0.35234312785, -10.0689975008
15.1732230186, -0.00252687122588, -0.0210121186638, -9.81845074758, 0.3541377448, -0.0083748791, -9.87816989845, 0.000878294536323, -0.0318884205221, -9.82240146115, 0.21834506225, 0.42891345105, -10.0648100613
15.2234110832, -0.00444245890446, -0.00858024969421, -9.81728701771, 0.34755748265, -0.0095712904, -9.88175913235, 0.00230240480942, -0.0321756383494, -9.82377862724, 0.22552353005, 0.42173498325, -10.0791669969
15.2735950947, -0.0027000429308, -0.0177102474677, -9.81820451519, 0.3816552047, -0.0287138712, -9.89611606795, 0.00187007070242, -0.0402108116714, -9.82285332115, 0.20877377185, 0.38584264425, -10.0767741743
15.3237769604, -0.00476817173695, -0.0199097282919, -9.81629195595, 0.3505485109, -0.03170489945, -9.8775716928, 0.00131112655396, -0.0365060064109, -9.82676477459, 0.2129612114, 0.43130627365, -10.0935239324
15.3739881516, -0.00290197862193, -0.0251609005294, -9.81660320254, 0.36550365215, -0.02333002035, -9.8859465719, -0.00131310471579, -0.0341810865343, -9.82615239216, 0.1950150419, 0.4283152454, -10.0815598194
15.4241991043, -0.00586616731534, -0.0296467941028, -9.81646294259, 0.3457628657, 0.0035892339, -9.8859465719, -0.000820072455613, -0.0354753728642, -9.82394311753, 0.21355941705, 0.37028929735, -10.0552387708
15.474419117, -0.00519115626142, -0.0254088376858, -9.81191418213, 0.36550365215, 0.0191425808, -9.8715896363, -0.000742266217547, -0.0357869524135, -9.82786884574, 0.22552353005, 0.4103690759, -10.0995059889
15.524613142, -0.00834729028125, -0.0280359162225, -9.80806218856, 0.3397808092, -0.03768695595, -9.8656075798, -0.00203716999021, -0.0316843947164, -9.8274594517, 0.21355941705, 0.43130627365, -10.0582297991
15.5748031139, -0.00656361460948, -0.0429991162591, -9.81511909792, 0.3553341561, -0.14057832775, -9.8907322171, -0.00410265305892, -0.0378947679705, -9.82396635235, 0.2045863323, 0.35712877305, -10.0462656861
15.6249699593, -0.00678500228768, -0.0356918156039, -9.81379875002, 0.3649054465, 0.01854437515, -9.87816989845, -0.00559058918522, -0.0366998025621, -9.82575207178, 0.2057827436, 0.4019941968, -10.0689975008
15.675150156, -0.00582175351552, -0.0330809793176, -9.8126634656, 0.3661018578, 0.0215354034, -9.88774118885, -0.00669412248703, -0.0402303870693, -9.8269532402, 0.21595223965, 0.36670006345, -10.0821580251
15.7253191471, -0.00677075445287, -0.0371194355854, -9.80923653544, 0.34755748265, -0.02093719775, -9.86022372895, -0.00506945469574, -0.0402185135013, -9.82966312946, 0.215354034, 0.40857445895, -10.0875418759
15.7755811214, -0.00554102022682, -0.0380299753237, -9.81128312765, 0.37148570865, -0.01854437515, -9.9038927414, -0.00630789588955, -0.0412081592455, -9.82652598096, 0.22313070745, 0.38703905555, -10.0510513313
15.8257660866, -0.0039938155904, -0.0327328333672, -9.80783844437, 0.3625126239, 0.0215354034, -9.8560362894, -0.00691391838628, -0.0450176522129, -9.82417478579, 0.2105683888, 0.370887503, -10.0630154443
15.8759970665, -0.00492480117273, -0.0355715438664, -9.80852953658, 0.3481556883, -0.02572284295, -9.8871429832, -0.00792155260889, -0.044796358777, -9.82288201816, 0.20039889275, 0.4115654872, -10.0558369765
15.9262299538, -0.00520880001827, -0.0395081381542, -9.80853436781, 0.3565305674, -0.0825523797, -9.8727860476, -0.00594570687943, -0.0497116160994, -9.82326928484, 0.22313070745, 0.34396824875, -10.0803634081
15.9763989449, -0.0079847121648, -0.0242559440354, -9.80848904686, 0.34516466005, 0.13100703735, -9.8644111685, -0.00727488858784, -0.048311330813, -9.82677269206, 0.21355941705, 0.38105699905, -10.0767741743
16.0266330242, -0.00523220176949, -0.00548292017466, -9.80762083103, 0.3661018578, 0.13220344865, -9.87816989845, -0.00518701788315, -0.048038515867, -9.82760646299, 0.2177468566, 0.3972085516, -10.0863454646
16.0768830776, -0.00534165244078, -0.010011575241, -9.81186473694, 0.3529413335, -0.01615155255, -9.90449094705, -0.00537420835335, -0.0514127517173, -9.82829378155, 0.21834506225, 0.36071800695, -10.0606226217
16.1270811558, -0.00462135817418, -0.0133303513684, -9.8129057098, 0.3541377448, 0.03768695595, -9.88534836625, -0.00463784570384, -0.0416747414892, -9.82759312453, 0.21236300575, 0.4606183505, -10.0767741743
16.1772811413, -0.00662952196559, -0.0157338965189, -9.81454827966, 0.3577269787, -0.0011964113, -9.8847501606, -0.00680774462911, -0.0411075438248, -9.83051428447, 0.1974078645, 0.3912264951, -10.0791669969
16.2275099754, -0.00556320608601, -0.0204020245712, -9.81584486432, 0.36191441825, -0.00897308475, -9.8991070962, -0.00661549625722, -0.0428272537758, -9.82684118217, 0.21116659445, 0.38823546685, -10.0749795573
16.2777380943, -0.00706938772317, -0.00380890308171, -9.81512241375, 0.346959277, 0.13818550515, -9.88175913235, -0.00740465608535, -0.0410181471154, -9.8299411035, 0.20638094925, 0.4019941968, -10.0989077833
16.3279280663, -0.00726646318777, -0.00500656693068, -9.81648139716, 0.34157542615, 0.00418743955, -9.89850889055, -0.00647059468663, -0.0403304380655, -9.83207517022, 0.20757736055, 0.4103690759, -10.0881400816
16.3781051636, -0.00987280215518, -0.015826468747, -9.82150435812, 0.3445664544, -0.0287138712, -9.91765147135, -0.00567938462906, -0.0509490825379, -9.8273467645, 0.1962114532, 0.3732803256, -10.0725867347
16.4282879829, -0.0094953544822, -0.0184137778106, -9.82104658439, 0.35114671655, -0.0023928226, -9.88654477755, -0.00698140083054, -0.0455928394852, -9.82894484192, 0.2105683888, 0.40857445895, -10.0767741743
16.4784679413, -0.00571301527332, -0.0150599419255, -9.82047325505, 0.3684946804, 0.04007977855, -9.90329453575, -0.00570480303096, -0.0447313308133, -9.83040194598, 0.2201396792, 0.3756731482, -10.0582297991
16.5286509991, -0.00433131015789, -0.0227938903191, -9.82223930805, 0.35832518435, -0.04486542375, -9.91166941485, -0.00632601735158, -0.0435415067818, -9.82576649552, 0.21355941705, 0.4007977855, -10.0606226217
16.5788090229, -0.0076218093455, -0.00947138500219, -9.81980895131, 0.3481556883, 0.14297115035, -9.87697348715, -0.00401207279965, -0.0390975225858, -9.82256468972, 0.2129612114, 0.4331008906, -10.0672028838
16.6289949417, -0.00550654585336, -0.00977862103778, -9.81900331454, 0.36311082955, 0.00179461695, -9.8895358058, -0.00925600448772, -0.0456301689455, -9.82401253734, 0.18723836845, 0.3493520996, -10.1054880454
16.6792190075, -0.00310726763615, -0.0211220467501, -9.81710893482, 0.37507494255, -0.0454636294, -9.86500937415, -0.00947585145285, -0.0435938375893, -9.82769941698, 0.2201396792, 0.44446679795, -10.0773723799
16.7294330597, -0.00253770356628, -0.0146932223396, -9.81743843506, 0.36430724085, 0.0502492746, -9.89252683405, -0.0074842546628, -0.0451026907179, -9.82865023094, 0.2309073809, 0.38943187815, -10.061819033
16.7796370983, 0.000113076009314, -0.0190332367411, -9.82201241094, 0.37866417645, -0.02691925425, -9.91406223745, -0.00687604675487, -0.050081593234, -9.83242936467, 0.2165504453, 0.34755748265, -10.0935239324
16.8298079967, -0.00319501182001, -0.0153254855287, -9.81900645429, 0.3505485109, 0.02691925425, -9.8859465719, -0.006709555725, -0.0522706331976, -9.83186958033, 0.22073788485, 0.3780659708, -10.0678010895
16.8799750805, -0.00278225599371, -0.0114396833667, -9.81858061011, 0.3577269787, 0.03529413335, -9.89611606795, -0.00827047571225, -0.0500192292161, -9.83260234068, 0.20279171535, 0.36909288605, -10.0869436703
16.9301860332, -0.0051039568604, -0.0169183090885, -9.81535830714, 0.3505485109, -0.0035892339, -9.8775716928, -0.00867938682242, -0.051473758953, -9.83114403118, 0.2237289131, 0.33200413575, -10.0755777629
16.9804570675, -0.00508576531898, -0.0241476161562, -9.81744933293, 0.35712877305, -0.0430708068, -9.906285564, -0.0081109304535, -0.0494922999801, -9.83316148648, 0.2201396792, 0.40259240245, -10.0839526421
17.0306370258, -0.00410439435038, -0.0211160190745, -9.81750478556, 0.36789647475, 0.01375872995, -9.89850889055, -0.00932782250783, -0.0492642934349, -9.83421109797, 0.20518453795, 0.38105699905, -10.0893364929
17.080862999, -0.00306421954931, -0.0249595309329, -9.82162946472, 0.3601198013, -0.0562313311, -9.89731247925, -0.00816594678834, -0.0505511940323, -9.83355978709, 0.215354034, 0.37387853125, -10.0845508477
17.1310889721, -0.00211704142414, -0.0320172450421, -9.81911791479, 0.3744767369, -0.02093719775, -9.87816989845, -0.00486524554865, -0.0496243367522, -9.83131419605, 0.227318147, 0.36789647475, -10.0666046782
17.1812911034, 0.00120156940694, -0.0346987965546, -9.8191255294, 0.3888336725, -0.02333002035, -9.88774118885, -0.00355823807241, -0.0451957677833, -9.83435985826, 0.23389840915, 0.42173498325, -10.1030952228
17.2314829826, -0.000840781592288, -0.0255373032197, -9.81942514909, 0.36071800695, -0.05682953675, -9.9003035075, -0.00324162048539, -0.0476398729475, -9.83139375878, 0.20398812665, 0.3649054465, -10.0582297991
17.2817120552, -0.00610962894675, -0.021033290183, -9.81737040026, 0.34037901485, 0.01615155255, -9.87577707585, -0.00579644333216, -0.0468186626115, -9.83038641593, 0.2069791549, 0.41096728155, -10.0761759686
17.3319201469, -0.00356246855813, -0.0266563105354, -9.81956699656, 0.3577269787, -0.04725824635, -9.8895358058, -0.00697297395125, -0.0466269503361, -9.83041317202, 0.1986042758, 0.38584264425, -10.073783146
17.3820900917, -0.00632217057459, -0.0267552415912, -9.82204960582, 0.3457628657, -0.023928226, -9.90688376965, -0.00804117229451, -0.0428994900293, -9.83088426486, 0.19322042495, 0.4031906081, -10.1030952228
17.4322471619, -0.00367018904742, -0.0101574022243, -9.81800667814, 0.35353953915, -0.0334995164, -9.87458066455, -0.00799115830805, -0.0372660884902, -9.83413723718, 0.20398812665, 0.4115654872, -10.0713903234
17.482416153, -0.00575979162142, -0.0163864112994, -9.81945297648, 0.3445664544, -0.0155533469, -9.90927659225, -0.00602755612792, -0.0311703981887, -9.83554094152, 0.22432711875, 0.43130627365, -10.0983095776
17.5326061249, -0.00627747502335, -0.0141714169255, -9.81723740698, 0.34516466005, 0.0095712904, -9.88175913235, -0.00633620098712, -0.0333826751528, -9.83970376222, 0.2009970984, 0.38823546685, -10.1013006059
17.5828471184, -0.00436379654391, -0.0142855475062, -9.81648367351, 0.36311082955, -0.0035892339, -9.8727860476, -0.00675370090506, -0.0348755166688, -9.84053925504, 0.21116659445, 0.37507494255, -10.0899346985
17.6330680847, -0.00385585912816, -0.0186845626921, -9.81467450906, 0.3637090352, 0.0011964113, -9.86979501935, -0.00914000779829, -0.036921991714, -9.83536493959, 0.215354034, 0.40977087025, -10.073783146
17.6832520962, -0.00197157960081, -0.0170079947631, -9.81462308023, 0.3684946804, 0.01974078645, -9.89970530185, -0.00587822270312, -0.0323286019509, -9.83442261413, 0.2297109696, 0.442672181, -10.0612208274
17.7334311008, -0.00429177551316, -0.0200527683246, -9.81578381624, 0.34995030525, -0.02213360905, -9.89611606795, -0.00732192136552, -0.0300017754072, -9.83347986881, 0.203389921, 0.44327038665, -10.0863454646
17.7836811543, -0.00618908037166, -0.0289258174209, -9.81635910696, 0.35353953915, -0.04366901245, -9.8919286284, -0.00675053884057, -0.0339615151073, -9.83290767091, 0.22671994135, 0.3756731482, -10.0570333878
17.8339159489, -0.00464990057054, -0.0314145486902, -9.81834521717, 0.37268211995, -0.0370887503, -9.88415195495, -0.00724198894843, -0.0287482036682, -9.83044578225, 0.21595223965, 0.4390829471, -10.0989077833
17.8840961456, -0.00531864270714, -0.0290241695241, -9.81617860641, 0.3565305674, -0.0, -9.8763752815, -0.00630892402323, -0.0312532000093, -9.82785384827, 0.2213360905, 0.39421752335, -10.0612208274
17.9343321323, -0.0027615124707, -0.0271923272178, -9.81345909377, 0.3613162126, -0.0394815729, -9.88893760015, -0.00582354079013, -0.0305850101579, -9.82500581196, 0.2249253244, 0.39661034595, -10.0660064725
17.9845089912, -0.00351387374727, -0.0212791432819, -9.81292074706, 0.3625126239, 0.0071784678, -9.8656075798, -0.00575818666501, -0.0348466971539, -9.82630689535, 0.215354034, 0.38823546685, -10.0725867347
18.0348031521, -0.00126984543079, -0.0210059169513, -9.81566115823, 0.34516466005, -0.0047856452, -9.8907322171, -0.00805021597166, -0.0360075359812, -9.8230836025, 0.23389840915, 0.3996013742, -10.0492567143
18.085308075, -0.00238521457949, -0.0230997636467, -9.81421786658, 0.3541377448, -0.0263210486, -9.8620183459, -0.00456911298319, -0.0347992763496, -9.82040188155, 0.2129612114, 0.38584264425, -10.0432746578
18.1355121136, -0.00212632022889, -0.0207577871748, -9.81309866291, 0.36311082955, 0.023928226, -9.86500937415, -0.00270221887488, -0.0356042196832, -9.82331948672, 0.21475582835, 0.37387853125, -10.0767741743
18.1856989861, -0.00441835901306, -0.0205027244193, -9.81983874402, 0.3397808092, -0.0167497582, -9.9158568544, -0.00276175005204, -0.0376895074433, -9.82730485112, 0.2105683888, 0.3996013742, -10.0713903234
18.2358701229, -0.00665651845308, -0.0213820031646, -9.81749005812, 0.3493520996, -0.011964113, -9.8811609267, -0.00525221481215, -0.0355584663255, -9.82818108118, 0.19561324755, 0.41336010415, -10.0845508477
18.2860331535, -0.00613044350799, -0.00924476158636, -9.81488772193, 0.35712877305, -0.02452643165, -9.87577707585, -0.00900428765284, -0.0346877570997, -9.82996161565, 0.1890329854, 0.40857445895, -10.0731849404
18.3362071514, -0.00777405500803, -0.0210720458136, -9.81809391384, 0.3553341561, -0.0095712904, -9.90329453575, -0.00792066432477, -0.0378654743921, -9.83113719197, 0.2057827436, 0.3900300838, -10.073783146
18.3863840103, -0.0077058464305, -0.0200055973079, -9.8155026114, 0.3457628657, -0.01734796385, -9.8739824589, -0.00648823005051, -0.0326117377975, -9.8268789306, 0.2129612114, 0.45523449965, -10.0785687912
18.4365870953, -0.00610701892071, -0.0167500162589, -9.81372654432, 0.36909288605, 0.0071784678, -9.87218784195, -0.00730157045791, -0.0336947261565, -9.82391783855, 0.19561324755, 0.38225341035, -10.0426764522
18.4868550301, -0.00515892791477, -0.0229365289467, -9.81287417153, 0.3613162126, -0.02452643165, -9.87697348715, -0.00688958807441, -0.0355589860497, -9.82245255481, 0.2057827436, 0.39661034595, -10.0660064725
18.5370321274, -0.00514378538712, -0.0201929206435, -9.81669542746, 0.3768695595, 0.0023928226, -9.8811609267, -0.00996050555864, -0.0370517462124, -9.82676857066, 0.1938186306, 0.37986058775, -10.0486585087
18.5872850418, -0.00511450170207, -0.0225188992143, -9.81409451968, 0.3577269787, -0.01615155255, -9.8715896363, -0.0104969652355, -0.0332233345525, -9.82733991417, 0.20039889275, 0.42293139455, -10.0815598194
18.6375219822, -0.00457121897611, -0.0234412119239, -9.81730510101, 0.36789647475, 0.00299102825, -9.89731247925, -0.0101729344774, -0.0367763749518, -9.82682716694, 0.215354034, 0.3900300838, -10.0869436703
18.6876709461, -0.00474643581315, -0.0239057473994, -9.81467808611, 0.35353953915, -0.01016949605, -9.86979501935, -0.0111894715752, -0.0345257082389, -9.82697461525, 0.19680965885, 0.3996013742, -10.0833544364
18.7379341125, -0.00582156226515, -0.026297974175, -9.81439267744, 0.35712877305, -0.02333002035, -9.8763752815, -0.00904576660043, -0.0324753500545, -9.82734529476, 0.22432711875, 0.43848474145, -10.0654082669
18.788187027, -0.00630358101877, -0.0286185294793, -9.81338382907, 0.35832518435, -0.023928226, -9.87936630975, -0.00831435106285, -0.0256699913352, -9.82735840645, 0.215354034, 0.4522434714, -10.0905329042
18.838365078, -0.00351781766148, -0.0260202443478, -9.81403645798, 0.3661018578, -0.0083748791, -9.89252683405, -0.00969327484326, -0.0314661991995, -9.82839837533, 0.1806581063, 0.40378881375, -10.0725867347
18.8885440826, -0.0046050454718, -0.0215979521352, -9.81135451287, 0.35234312785, 0.02572284295, -9.8560362894, -0.00932337931604, -0.0324856832366, -9.83208777432, 0.215354034, 0.442672181, -10.0743813517
18.9387440681, -0.00405598849466, -0.021294062405, -9.80999569701, 0.36071800695, -0.0059820565, -9.8512506442, -0.006200233271, -0.0349026923357, -9.83443610746, 0.22313070745, 0.4019941968, -10.0749795573
18.9889070988, -0.00193196480861, -0.0228121145817, -9.80987358772, 0.37268211995, -0.0131605243, -9.87936630975, -0.00735168381331, -0.0385264495421, -9.83279291434, 0.20039889275, 0.38105699905, -10.0719885291
19.039055109, -0.00202838045697, -0.0206803249012, -9.80916105309, 0.36311082955, -0.02931207685, -9.87697348715, -0.00689428755328, -0.0291057780776, -9.83071215431, 0.21475582835, 0.46959143525, -10.0546405652
19.0891990662, -0.00433778420665, -0.0253842859974, -9.81131769985, 0.3445664544, -0.01016949605, -9.88654477755, -0.00904224236916, -0.0325597848858, -9.82951128526, 0.1998006871, 0.43250268495, -10.060024416
19.1393771172, -0.0023545425336, -0.030824797097, -9.81698389085, 0.35473595045, -0.047856452, -9.8991070962, -0.00682669771921, -0.0340140819239, -9.83380830425, 0.22911276395, 0.4019941968, -10.0905329042
19.1895360947, -0.00268771740871, -0.0362274312796, -9.81719956214, 0.34755748265, -0.0466600407, -9.8787681041, -0.00652288732556, -0.0339692087629, -9.83000919573, 0.20398812665, 0.36071800695, -10.0474620974
19.2397241592, -0.00657673324006, -0.0311638798105, -9.81754773554, 0.32482566795, 0.00897308475, -9.89611606795, -0.00701259385621, -0.0328680554454, -9.82964777148, 0.1950150419, 0.41336010415, -10.0606226217
19.289937973, -0.00567100175645, -0.0291142485, -9.81396534748, 0.35353953915, -0.023928226, -9.88654477755, -0.00496857709403, -0.0320000494843, -9.82627425874, 0.21834506225, 0.4163511324, -10.0648100613
19.3401660919, -0.00420156630522, -0.0235417821875, -9.81681236946, 0.3625126239, 0.01734796385, -9.92841917305, -0.00508361224066, -0.0321882910743, -9.82752576305, 0.2081755662, 0.418743955, -10.0755777629
19.3903710842, -0.00445005621331, -0.0295145131303, -9.81379309102, 0.3565305674, -0.0107677017, -9.8739824589, -0.00324693780154, -0.0320850368735, -9.82779954047, 0.23389840915, 0.39661034595, -10.0731849404
19.4405469894, -0.00414580122928, -0.0338500488366, -9.81204871205, 0.3553341561, -0.0550349198, -9.8751788702, -0.00368310235725, -0.030600101209, -9.82580610534, 0.2141576227, 0.39062828945, -10.0707921177
19.4906980991, -0.00523933534822, -0.0323129770726, -9.81140146831, 0.3505485109, -0.0023928226, -9.8763752815, -0.00520887872137, -0.0330403757293, -9.82105682528, 0.2045863323, 0.38703905555, -10.0426764522
19.5408771038, -0.0100412879089, -0.0336851838005, -9.80963319005, 0.34037901485, 0.0107677017, -9.8739824589, -0.00729299461813, -0.0348591487214, -9.81691199715, 0.20398812665, 0.38105699905, -10.04985492
19.5910480022, -0.00886014265425, -0.0355234059769, -9.81423054069, 0.3637090352, -0.00299102825, -9.90808018095, -0.00674505434469, -0.0388471344753, -9.82226935114, 0.20877377185, 0.382851616, -10.1144611302
19.641215086, -0.00730520934794, -0.0395607220088, -9.81749377636, 0.3649054465, -0.00538385085, -9.8680004024, -0.0069413027687, -0.0408510813535, -9.82178128828, 0.2321037922, 0.35353953915, -10.0522477426
19.6927249432, -0.00525179379415, -0.0350116594843, -9.81368265792, 0.3852444386, 0.0107677017, -9.84825961595, -0.00596988872368, -0.0461948306066, -9.82263195751, 0.2057827436, 0.41934216065, -10.0785687912
19.7429609299, -0.00667357441076, -0.0342409210198, -9.81127730679, 0.35593236175, -0.0095712904, -9.88774118885, -0.00680992930518, -0.0365913447743, -9.82342694421, 0.20279171535, 0.40139599115, -10.0468638917
19.7932059765, -0.00610836649472, -0.0340951873835, -9.81422827666, 0.37148570865, 0.00179461695, -9.9038927414, -0.0061443994637, -0.0413688578437, -9.82402302698, 0.2189432679, 0.37866417645, -10.0743813517
19.8434340954, -0.00509474931155, -0.033388402443, -9.81521736461, 0.36430724085, -0.01375872995, -9.8979106849, -0.00633112011308, -0.0356616168175, -9.8227383678, 0.20039889275, 0.40618163635, -10.0636136499
19.8935940266, -0.00133599716835, -0.0332132215283, -9.81118642062, 0.3816552047, -0.02213360905, -9.88893760015, -0.0065521775326, -0.0416446919167, -9.82616916962, 0.2201396792, 0.34037901485, -10.0755777629
19.9438230991, -0.00130636440837, -0.0326765092584, -9.81182165682, 0.36550365215, -0.03649054465, -9.8859465719, -0.0056365177029, -0.041286593592, -9.82575968299, 0.21116659445, 0.4031906081, -10.0689975008
19.9940021038, -0.000230180908599, -0.0340423224341, -9.81242923939, 0.36071800695, -0.03290131075, -9.88175913235, -0.00442886963982, -0.0432491072077, -9.82693260668, 0.2249253244, 0.38225341035, -10.0522477426
20.0441739559, -0.00245053450447, -0.0365066068241, -9.80855715168, 0.3553341561, -0.0346959277, -9.8787681041, -0.00319879152975, -0.0440338276507, -9.8273830525, 0.21834506225, 0.39302111205, -10.0833544364
20.0943880081, -0.00389319542751, -0.0259100319792, -9.80950624441, 0.36430724085, 0.12263215825, -9.8668039911, -0.0040628478321, -0.0397761289926, -9.8293032483, 0.20997018315, 0.3924229064, -10.0935239324
20.1446311474, -0.00592605106728, -0.0242664081631, -9.80864216891, 0.3637090352, -0.00777667345, -9.8763752815, -0.00212652919385, -0.0362520636283, -9.83222992483, 0.21714865095, 0.43130627365, -10.1120683076
20.1948461533, -0.0071898125195, -0.00990615381514, -9.80890537886, 0.35353953915, 0.1268195978, -9.8811609267, -0.00552731737502, -0.0370800802039, -9.83297796851, 0.1974078645, 0.38703905555, -10.0845508477
20.2451429367, -0.00488172720551, -0.010286399125, -9.81233956479, 0.3696910917, 0.0167497582, -9.8775716928, -0.00604397920724, -0.0408172551424, -9.83070699938, 0.19920248145, 0.38823546685, -10.0881400816
20.2953169346, -0.00113952103647, -0.00760926975274, -9.81632699133, 0.36789647475, 0.01016949605, -9.8931250397, -0.00627771900336, -0.0436193621679, -9.83475935538, 0.2189432679, 0.4151547211, -10.0791669969
20.3455080986, -0.00279826633554, -0.0105195609297, -9.81513606707, 0.35114671655, -0.0023928226, -9.87099143065, -0.00643115589922, -0.042736525083, -9.83124614755, 0.20638094925, 0.35353953915, -10.0564351822
20.3956930637, -0.00428188640926, -0.0201355711126, -9.81459180526, 0.35234312785, -0.0334995164, -9.87577707585, -0.00647735396133, -0.0416004231096, -9.8244046193, 0.21475582835, 0.4175475437, -10.0444710691
20.4459469318, -0.0043744891345, -0.0186200017082, -9.8153337575, 0.35114671655, -0.01854437515, -9.89133042275, -0.00485806383018, -0.0427641961528, -9.82204525164, 0.22911276395, 0.37028929735, -10.0504531256
20.4961700439, -0.00516136206544, -0.0203714546276, -9.8144511888, 0.3445664544, -0.00418743955, -9.8883393945, -0.00496418621445, -0.0438803319563, -9.82381312858, 0.2057827436, 0.37986058775, -10.073783146
20.5465750694, -0.00576410452506, -0.0203903801913, -9.81199880923, 0.3505485109, -0.0083748791, -9.8548398781, -0.0085317022287, -0.0431393364196, -9.82765587768, 0.19680965885, 0.40977087025, -10.0725867347
20.598129034, -0.0069569408598, -0.019316925695, -9.81122944179, 0.32602207925, 0.0023928226, -9.8739824589, -0.00451991688472, -0.0426328565518, -9.82630077419, 0.23629123175, 0.41096728155, -10.0731849404
20.6483020782, -0.00252612032049, -0.0263364870207, -9.81168106384, 0.38584264425, -0.0203389921, -9.8668039911, -0.00386476339163, -0.0421468275114, -9.82830696174, 0.19322042495, 0.3924229064, -10.0959167551
20.6990520954, -0.0043640839366, -0.0304682700603, -9.80938084099, 0.3553341561, -0.011964113, -9.8656075798, -0.00454962428655, -0.0397067243544, -9.83073493767, 0.2177468566, 0.39541393465, -10.0863454646
20.7492520809, -0.00344206569614, -0.0263254795843, -9.80971307522, 0.3541377448, -0.0275174599, -9.88056272105, -0.0049775606701, -0.0455553270106, -9.83180292125, 0.2225325018, 0.4115654872, -10.0666046782
20.7994570732, -0.00349682649238, -0.0270017253798, -9.80960531538, 0.36550365215, -0.00538385085, -9.8859465719, -0.00430723953578, -0.0406077456886, -9.83223727989, 0.2165504453, 0.42173498325, -10.0935239324
20.849640131, -0.000982959595693, -0.025165223416, -9.80740076325, 0.38105699905, -0.01974078645, -9.8608219346, -0.00416211928909, -0.0437161417713, -9.82896703684, 0.2117648001, 0.36789647475, -10.0564351822
20.8998000622, 0.000116186760489, -0.0323849516039, -9.80516005839, 0.3661018578, -0.01854437515, -9.88175913235, -0.00745131995116, -0.0377600788192, -9.82606982296, 0.2021935097, 0.4175475437, -10.0510513313
20.9500961304, 0.000450164054496, -0.0382448955492, -9.80286054088, 0.35353953915, -0.0574277424, -9.83868832555, -0.00477359603294, -0.0296216085271, -9.8264748257, 0.2356930261, 0.45284167705, -10.0570333878
21.000316143, -0.00194847658262, -0.0383415565057, -9.80498372405, 0.34995030525, -0.04127618985, -9.88415195495, -0.00751106759501, -0.0359459318349, -9.82916301926, 0.20159530405, 0.3876372612, -10.0923275211
21.0505039692, -0.00275960177392, -0.0357118160246, -9.81026108331, 0.36670006345, -0.0107677017, -9.89850889055, -0.00974522412396, -0.0344811652468, -9.83099626775, 0.18484554585, 0.40139599115, -10.0755777629
21.1006939411, -0.00369178777788, -0.0338150264384, -9.81706615421, 0.3553341561, -0.0071784678, -9.93081199565, -0.00986795097941, -0.0372727718829, -9.83336056133, 0.2081755662, 0.38584264425, -10.1042916341
21.1509349346, -0.00435114553708, -0.0260572881136, -9.81932402291, 0.3649054465, 0.0658026215, -9.8907322171, -0.00902219480532, -0.0360284881491, -9.82703236527, 0.2057827436, 0.40259240245, -10.0552387708
21.2011590004, -0.00293507490304, -0.0236857850215, -9.81814990419, 0.3553341561, 0.0083748791, -9.86500937415, -0.00830123996531, -0.0409787465988, -9.82620164304, 0.21475582835, 0.382851616, -10.0594262104
21.2513699532, -0.00131880692696, -0.0276825013017, -9.81746307029, 0.3732803256, 0.0095712904, -9.89850889055, -0.00833296849546, -0.038786997925, -9.82611102636, 0.22313070745, 0.44207397535, -10.0713903234
21.3015780449, -0.00067628849334, -0.0289922393893, -9.81705529447, 0.3625126239, -0.0083748791, -9.89013401145, -0.00893339589782, -0.0367585005538, -9.82477340407, 0.21954147355, 0.40378881375, -10.0558369765
21.3518819809, -0.0029347652494, -0.0243503051267, -9.8188987997, 0.34636107135, 0.0011964113, -9.9086783866, -0.012058816608, -0.0307375549897, -9.82884810704, 0.19920248145, 0.40259240245, -10.0755777629
21.4020740986, -0.00242190485901, -0.0251505876962, -9.81579550241, 0.3672982691, -0.0071784678, -9.8739824589, -0.0106651907215, -0.0237658666432, -9.82903032069, 0.1974078645, 0.4319044793, -10.0875418759
21.4523050785, -0.0048240365543, -0.0279942313129, -9.81886907237, 0.34396824875, -0.0167497582, -9.8835537493, -0.00811860636287, -0.0264338576175, -9.82970433472, 0.22073788485, 0.37028929735, -10.0809616138
21.5025370121, -0.00635101927248, -0.0313264963604, -9.81859495393, 0.35353953915, 0.00418743955, -9.8763752815, -0.00978867628843, -0.0255081891527, -9.8323798982, 0.2081755662, 0.4259224228, -10.0785687912
21.5527000427, -0.00673784523469, -0.0319472951394, -9.82112310626, 0.35712877305, -0.01495514125, -9.88534836625, -0.012912625188, -0.0279875260668, -9.83136452605, 0.2057827436, 0.43728833015, -10.0779705855
21.6028590202, -0.0049939248446, -0.0323091350984, -9.82214953572, 0.3696910917, -0.0215354034, -9.89850889055, -0.00773763148875, -0.0258514059521, -9.83209155175, 0.23629123175, 0.39900316855, -10.0821580251
21.6530280113, -0.00490936587162, -0.0326799921997, -9.81946349435, 0.3625126239, -0.0047856452, -9.87338425325, -0.00762419150235, -0.0341850916859, -9.83075472011, 0.203389921, 0.40139599115, -10.0767741743
21.7038769722, -0.00216763606651, -0.0306590175193, -9.81545297929, 0.37148570865, -0.01734796385, -9.85424167245, -0.0070432341034, -0.0400419267181, -9.82994656135, 0.21116659445, 0.3756731482, -10.0624172386
21.7540521622, -0.00209365098938, -0.0285198662926, -9.81380000139, 0.35952159565, 0.00538385085, -9.87816989845, -0.00895949915376, -0.0382236471136, -9.82901079609, 0.2093719775, 0.37507494255, -10.0719885291
21.8042299747, -0.00381637591389, -0.03034049536, -9.8140403522, 0.36430724085, -0.05922235935, -9.88534836625, -0.010374086545, -0.0396282098105, -9.83053198976, 0.2069791549, 0.39421752335, -10.0899346985
21.8544261456, -0.00490384895623, -0.031138171357, -9.81749891313, 0.3541377448, -0.02691925425, -9.8991070962, -0.0103507538376, -0.0332142192709, -9.82858888571, 0.20638094925, 0.42173498325, -10.0815598194
21.9047250748, -0.00395106004005, -0.0311931264841, -9.81669549349, 0.37387853125, -0.0454636294, -9.8835537493, -0.010890833076, -0.0356902143879, -9.83030390142, 0.203389921, 0.3661018578, -10.0689975008
21.954996109, -0.00131289938994, -0.0293473102832, -9.81883834397, 0.3720839143, -0.0287138712, -9.8991070962, -0.00987465752955, -0.0352730375502, -9.82912077986, 0.2141576227, 0.39302111205, -10.0809616138
22.0051879883, -0.00256781529885, -0.0302151114779, -9.81893496938, 0.35593236175, -0.0227318147, -9.88056272105, -0.00582124482693, -0.0312860698467, -9.82788129474, 0.2249253244, 0.41336010415, -10.0743813517
22.0553920269, -0.00312325904711, -0.0328808650298, -9.82110597242, 0.36311082955, -0.01974078645, -9.91645506005, -0.00417410383508, -0.0371647079877, -9.83256919368, 0.21595223965, 0.3984049629, -10.0719885291
22.1055660248, -0.00272658196859, -0.0299954833623, -9.81705832205, 0.370887503, -0.01256231865, -9.8727860476, -0.00436117516003, -0.0390358771892, -9.82909953036, 0.2129612114, 0.3744767369, -10.0325069561
22.1557769775, -0.000638121146561, -0.0286763221795, -9.81635057883, 0.3780659708, 0.00059820565, -9.89013401145, -0.00564445861812, -0.0419371637657, -9.82434065136, 0.2105683888, 0.3852444386, -10.0504531256
22.2060720921, -0.00250579149821, -0.0269198651239, -9.8151491909, 0.35593236175, 0.0047856452, -9.89731247925, -0.00722230330418, -0.0400160175517, -9.82640819531, 0.1998006871, 0.39780675725, -10.0773723799
22.2563090324, -0.00560384945555, -0.0236247512243, -9.81651505076, 0.34277183745, 0.0143569356, -9.88893760015, -0.00886526294638, -0.0441428427934, -9.82650364299, 0.20638094925, 0.3732803256, -10.0540423596
22.3065090179, -0.00561289895765, -0.0274824741945, -9.81401602684, 0.35593236175, -0.04486542375, -9.88295554365, -0.00639917510066, -0.0398990073678, -9.82059439214, 0.22073788485, 0.39302111205, -10.0414800409
22.3567171097, -0.0054526092987, -0.026598910358, -9.8135573066, 0.35114671655, -0.01136590735, -9.88415195495, -0.00500411093054, -0.0346083793874, -9.82221918844, 0.2189432679, 0.46121655615, -10.0695957064
22.4069240093, -0.00729087126344, -0.0222580974115, -9.81509401924, 0.3481556883, 0.011964113, -9.88654477755, -0.00477739948424, -0.0353598622963, -9.82257814439, 0.21475582835, 0.4259224228, -10.0761759686
22.4570870399, -0.006313924061, -0.0260949570698, -9.8181826894, 0.34636107135, -0.0143569356, -9.92243711655, -0.00528552426476, -0.0360050890816, -9.82263619538, 0.2225325018, 0.4199403663, -10.0672028838
22.5073080063, -0.00609820636691, -0.0250263672496, -9.81943280289, 0.35952159565, -0.00418743955, -9.88654477755, -0.00260653962845, -0.0419229044506, -9.82678032852, 0.22313070745, 0.36191441825, -10.0695957064
22.5574841499, -0.0055705337012, -0.0251239205917, -9.81746633069, 0.34636107135, -0.0035892339, -9.87936630975, -0.00442659375855, -0.042774159666, -9.83049599975, 0.19561324755, 0.3792623821, -10.1001041946
22.6076591015, -0.00347096377172, -0.00945851070621, -9.81977511535, 0.3684946804, 0.131605243, -9.88774118885, -0.00593367562788, -0.0428254664319, -9.83182645901, 0.1962114532, 0.4043870194, -10.0666046782
22.6578741074, -0.000493313344595, -0.0148469588265, -9.82132087357, 0.37746776515, -0.03768695595, -9.89252683405, -0.00779754630258, -0.0456049367024, -9.82955843799, 0.203389921, 0.3684946804, -10.0660064725
22.7081699371, -0.00260385121262, -0.014772915881, -9.81892986531, 0.34516466005, -0.0191425808, -9.894321451, -0.00593340168309, -0.0457984801854, -9.83049103312, 0.23389840915, 0.3696910917, -10.0630154443
22.7583789825, -0.0036980838093, -0.0166225052056, -9.81970544136, 0.35832518435, 0.0011964113, -9.9086783866, -0.00547261647532, -0.0467769565886, -9.82878574826, 0.2213360905, 0.4127618985, -10.0713903234
22.8085179329, -0.00471516871253, -0.0187056260086, -9.82152166606, 0.3505485109, -0.0047856452, -9.90209812445, -0.00474412707701, -0.0434217928793, -9.82193892958, 0.2237289131, 0.38464623295, -10.0348997787
22.8587591648, -0.00506044296415, -0.0185265522309, -9.81888911731, 0.3661018578, -0.011964113, -9.906285564, -0.00983700433938, -0.0461776919722, -9.82184265992, 0.1830509289, 0.4079762533, -10.0576315934
22.9089729786, -0.00536032498142, -0.0245638934654, -9.81791222581, 0.3577269787, -0.0191425808, -9.8787681041, -0.00758314806791, -0.039401753512, -9.82815745761, 0.21355941705, 0.39780675725, -10.0731849404
22.9592199326, -0.00410545158645, -0.0236725466565, -9.81718581023, 0.34157542615, -0.00897308475, -9.8991070962, -0.0128843684045, -0.0398765933263, -9.83164138459, 0.18364913455, 0.4055834307, -10.0869436703
23.0094239712, -0.00221089489642, -0.0259841159836, -9.81531737377, 0.3720839143, -0.0083748791, -9.87697348715, -0.00807945137678, -0.0399163306445, -9.82803611848, 0.1998006871, 0.39900316855, -10.0713903234
23.0596160889, -0.0041386616256, -0.0276644037337, -9.81334320164, 0.35234312785, -0.023928226, -9.87577707585, -0.0069872685902, -0.0361179253665, -9.82915625936, 0.2213360905, 0.4031906081, -10.0636136499
23.1097841263, -0.00296013026276, -0.0344186089706, -9.81714024178, 0.3577269787, -0.04127618985, -9.90329453575, -0.00593998800865, -0.0339555224823, -9.83020252976, 0.2261217357, 0.4271188341, -10.0546405652
23.1600251198, -0.00414733662234, -0.0315830815377, -9.81607595659, 0.35832518435, -0.00179461695, -9.88295554365, -0.00667205065251, -0.0370384270516, -9.8279260063, 0.203389921, 0.4151547211, -10.0612208274
23.2102169991, -0.00394691339573, -0.0313955617559, -9.81574837078, 0.36789647475, -0.0406779842, -9.8895358058, -0.00378038270518, -0.0367753229055, -9.82718683086, 0.2285145583, 0.42652062845, -10.0785687912
23.2604329586, -0.00679508641854, -0.0320596389223, -9.81588772395, 0.34037901485, -0.0466600407, -9.8799645154, -0.00670542319369, -0.0391250575299, -9.82794191542, 0.20279171535, 0.39182470075, -10.0809616138
23.3106360435, -0.00569467027392, -0.0320079771922, -9.81731543708, 0.3672982691, -0.01495514125, -9.88175913235, -0.00605456273735, -0.0419317722592, -9.83008836011, 0.20757736055, 0.3876372612, -10.0719885291
23.3608269691, -0.00417886340887, -0.0260292717842, -9.81822185371, 0.3720839143, 0.00299102825, -9.8895358058, -0.00748868501926, -0.0374513302495, -9.83114758818, 0.2117648001, 0.4331008906, -10.085747259
23.4110491276, -0.00651107402432, -0.0306273942302, -9.81599069529, 0.35353953915, 0.0035892339, -9.88893760015, -0.00737630869894, -0.0363662592302, -9.83273097864, 0.215354034, 0.40259240245, -10.0845508477
23.4612710476, -0.0058451359387, -0.0331423093289, -9.81450474389, 0.35234312785, -0.0071784678, -9.8727860476, -0.00670486173314, -0.0302692854404, -9.82936986219, 0.20877377185, 0.4151547211, -10.060024416
23.5114791393, -0.00655597589785, -0.0352571572934, -9.81197908877, 0.35114671655, -0.02572284295, -9.86979501935, -0.00780007317184, -0.0321801913633, -9.8286633109, 0.1902293967, 0.3924229064, -10.0893364929
23.5616941452, -0.00338596094513, -0.0316440516315, -9.81239086663, 0.36430724085, 0.00418743955, -9.906285564, -0.00638237293052, -0.0348530117832, -9.82763220225, 0.21475582835, 0.3792623821, -10.061819033
23.6118609905, -0.00281728365506, -0.0343067790445, -9.81342537402, 0.3696910917, -0.00897308475, -9.88415195495, -0.00555879654022, -0.0356597094974, -9.83020496021, 0.2321037922, 0.3780659708, -10.0827562307
23.662058115, -0.00309275847304, -0.0337962919595, -9.81257362295, 0.36550365215, 0.0071784678, -9.86381296285, -0.00512295900297, -0.0371317538679, -9.8281111989, 0.2009970984, 0.41096728155, -10.073783146
23.7122011185, -0.00166453500816, -0.0342913690992, -9.81317260886, 0.37507494255, 0.00538385085, -9.86022372895, -0.00662640897741, -0.035890335331, -9.82542445068, 0.2009970984, 0.3996013742, -10.0666046782
23.7623980045, -0.00282272986711, -0.0366963705098, -9.81337663078, 0.35353953915, -0.0334995164, -9.8859465719, -0.0055171834782, -0.0353035302711, -9.82544958141, 0.22911276395, 0.39541393465, -10.0444710691
23.8125619888, -0.00203969937807, -0.0307221504495, -9.80993529634, 0.3565305674, 0.0370887503, -9.88295554365, -0.00473190507381, -0.0290912383223, -9.83019886722, 0.2117648001, 0.42293139455, -10.0719885291
23.8631260395, -0.00349151845324, -0.0288162682826, -9.8106646768, 0.35473595045, -0.00299102825, -9.8715896363, -0.00386528495143, -0.0287853863351, -9.82912070436, 0.2165504453, 0.3996013742, -10.061819033
23.9135160446, -0.00185592534912, -0.0290013180559, -9.81104610299, 0.3720839143, -0.0143569356, -9.88295554365, -0.00474801057379, -0.0332372222311, -9.8311863813, 0.21355941705, 0.38703905555, -10.073783146
23.9636881351, -0.000395117808311, -0.0349230298706, -9.81110832691, 0.3756731482, -0.0287138712, -9.88534836625, -0.00557636309834, -0.0376682541976, -9.82584878715, 0.20638094925, 0.36430724085, -10.0624172386
24.0138559341, -0.00269779246673, -0.0334572663092, -9.81479728562, 0.33320054705, -0.0191425808, -9.8991070962, -0.00909336812616, -0.0423009750415, -9.82443536713, 0.1902293967, 0.3780659708, -10.0486585087
24.0640311241, -0.00416138271255, -0.0283805842737, -9.8154263894, 0.35114671655, -0.01495514125, -9.8859465719, -0.0102785262463, -0.0427772248431, -9.82538991197, 0.2117648001, 0.4091726646, -10.0833544364
24.1142420769, -0.00377438839416, -0.0292765299412, -9.81353918132, 0.3637090352, -0.0179461695, -9.87577707585, -0.00930092226298, -0.0403614718604, -9.82379448569, 0.21116659445, 0.382851616, -10.0594262104
24.1644639969, -0.00620668692977, -0.0255037394439, -9.81491782223, 0.3529413335, -0.0095712904, -9.9026963301, -0.00739041847101, -0.0377706139554, -9.82626490394, 0.23150558655, 0.4031906081, -10.0965149607
24.2147140503, -0.00306612487155, -0.0191284237658, -9.81553101035, 0.38105699905, -0.04965106895, -9.8919286284, -0.00866678665032, -0.0350359056884, -9.82639283658, 0.1998006871, 0.4007977855, -10.0540423596
24.2648689747, -0.00218134687596, -0.0184562565158, -9.81500577934, 0.36430724085, -0.02452643165, -9.8847501606, -0.00945503497626, -0.0270381587316, -9.82954803329, 0.2105683888, 0.490528633, -10.0743813517
24.3151390553, -0.00407285333353, -0.0158779018333, -9.81544175835, 0.3565305674, 0.01734796385, -9.8847501606, -0.00965084393927, -0.0331342664596, -9.83166705251, 0.22791635265, 0.40139599115, -10.0791669969
24.3653309345, -0.00620408170979, -0.0223243532101, -9.8180742768, 0.34995030525, -0.02811566555, -9.88893760015, -0.00988273233738, -0.0391036687064, -9.83307257938, 0.20638094925, 0.36670006345, -10.0713903234
24.4155049324, -0.00675100906843, -0.0122932107062, -9.81817848767, 0.3661018578, -0.02691925425, -9.8883393945, -0.0103203098528, -0.0357348437957, -9.83466550419, 0.2117648001, 0.42412780585, -10.0881400816
24.4657361507, -0.00292096139174, -0.0166937640799, -9.81737204319, 0.3684946804, -0.01495514125, -9.88893760015, -0.0102182305476, -0.0326634938516, -9.83189115106, 0.2081755662, 0.4438685923, -10.0851490533
24.5158879757, -0.00425319713631, -0.0236207755747, -9.81910519257, 0.3445664544, -0.0705882667, -9.90329453575, -0.00992805513153, -0.0360158120868, -9.83018511597, 0.2081755662, 0.38584264425, -10.0642118556
24.5660960674, -0.00351376291341, -0.023650396171, -9.81799657984, 0.35952159565, -0.00777667345, -9.87816989845, -0.00868802755254, -0.0400173320048, -9.82837850154, 0.2117648001, 0.3756731482, -10.0809616138
24.6162691116, 0.000380566748376, -0.0289667732031, -9.81891979206, 0.3732803256, -0.03529413335, -9.8895358058, -0.0077230120224, -0.04393837256, -9.82845348994, 0.2213360905, 0.42053857195, -10.0839526421
24.6666829586, -0.000753435545816, -0.034249849462, -9.82036485121, 0.3744767369, -0.0466600407, -9.88774118885, -0.00988698882765, -0.0485163616501, -9.83085225707, 0.22671994135, 0.38464623295, -10.0701939121
24.7176239491, -0.0005676743625, -0.0352610721205, -9.81367776427, 0.3577269787, -0.023928226, -9.85543808375, -0.009325071068, -0.0483957795525, -9.8314401085, 0.20398812665, 0.3768695595, -10.0773723799
24.7678670883, -0.000103763455125, -0.0327380591526, -9.81620853955, 0.36430724085, -0.00059820565, -9.8967142736, -0.00991646067658, -0.045223568113, -9.83140501647, 0.20159530405, 0.394815729, -10.0773723799
24.8181841373, 0.000445484018349, -0.0351929251366, -9.81566823706, 0.36550365215, -0.035892339, -9.88534836625, -0.010545037672, -0.039232340529, -9.83375745042, 0.20279171535, 0.4462614149, -10.0839526421
24.8683731556, 0.00139806331103, -0.0379070995854, -9.81496540025, 0.3565305674, -0.04965106895, -9.88295554365, -0.00704167677821, -0.0352442756641, -9.82906008617, 0.22671994135, 0.4019941968, -10.0749795573
24.9185929298, 0.00403684012943, -0.0404147436617, -9.81453567105, 0.37148570865, -0.0586241537, -9.87816989845, -0.00828824739235, -0.0312867009449, -9.8259537671, 0.19561324755, 0.42173498325, -10.048060303
24.968845129, 0.00177468534546, -0.0406848915722, -9.81560955091, 0.36550365215, -0.02213360905, -9.89372324535, -0.00720664696122, -0.0281244860699, -9.83259971959, 0.2093719775, 0.38344982165, -10.1186485698
25.0191040039, 0.000932131772319, -0.0388242748979, -9.81354397278, 0.3696910917, -0.02452643165, -9.88295554365, -0.00800911134209, -0.0306762040766, -9.82844400062, 0.20997018315, 0.406779842, -10.0372926013
25.0693261623, -0.00156721183383, -0.0306845585421, -9.81657354281, 0.35832518435, 0.01615155255, -9.9170532657, -0.00891262921538, -0.0414100481373, -9.82680412934, 0.2057827436, 0.37627135385, -10.0612208274
25.1195590496, -0.000644196264402, -0.0300659789286, -9.81766877581, 0.35892339, -0.02333002035, -9.894321451, -0.0114667305735, -0.0387994224347, -9.82900780018, 0.2069791549, 0.4390829471, -10.0785687912
25.1697990894, -0.00238554724815, -0.028906542491, -9.81793426226, 0.3553341561, 0.0071784678, -9.918249677, -0.0121630445281, -0.0420335668784, -9.83177526089, 0.19202401365, 0.3984049629, -10.0881400816
25.2199759483, -0.004513430234, -0.0453276876752, -9.8164140283, 0.3397808092, -0.1483550012, -9.8847501606, -0.0121015601057, -0.0386524284565, -9.83271138568, 0.2129612114, 0.4019941968, -10.0893364929
25.2701661587, -0.00507401536334, -0.0393037136856, -9.81584587185, 0.3421736318, -0.0179461695, -9.8859465719, -0.0135159652643, -0.0313088561864, -9.83097567167, 0.19561324755, 0.40977087025, -10.0881400816
25.320348978, -0.0064458250908, -0.0361442040634, -9.81235353769, 0.3481556883, 0.00777667345, -9.87936630975, -0.0138913444561, -0.0294330097675, -9.83309263213, 0.20279171535, 0.4283152454, -10.0845508477
25.37053895, -0.0076749550744, -0.0282253031294, -9.81385067991, 0.35593236175, 0.04247260115, -9.89252683405, -0.0101409552557, -0.0277565952901, -9.83307752936, 0.22911276395, 0.39062828945, -10.0761759686
25.4207630157, -0.00629735095626, -0.0153920222643, -9.81327980623, 0.36909288605, 0.00658026215, -9.88056272105, -0.00996117504913, -0.0289724292675, -9.83326971245, 0.21475582835, 0.43968115275, -10.0666046782
25.4710080624, -0.00795495289716, -0.0188445224831, -9.81675723675, 0.34995030525, -0.0035892339, -9.91645506005, -0.00966748794677, -0.0336445636883, -9.83118767685, 0.2117648001, 0.37986058775, -10.0815598194
25.5211920738, -0.0071821754077, -0.0163240025098, -9.8191096921, 0.36789647475, -0.0011964113, -9.894321451, -0.00864446571488, -0.03661307079, -9.82796425427, 0.2165504453, 0.394815729, -10.0552387708
25.5713479519, -0.00622721253374, -0.0204738098089, -9.81616971517, 0.36311082955, -0.0227318147, -9.86740219675, -0.00655360378555, -0.0342378983989, -9.82733334268, 0.21355941705, 0.4151547211, -10.0648100613
25.62154603, -0.00737393274233, -0.0215081337427, -9.81684516473, 0.3433700431, 0.00538385085, -9.88774118885, -0.0061282016008, -0.0283299591331, -9.82652320147, 0.19441683625, 0.43130627365, -10.0833544364
25.6717319489, -0.00590847367776, -0.0247005761493, -9.82056356209, 0.370887503, -0.0227318147, -9.9230353222, -0.00710296127253, -0.0326593532787, -9.82924434703, 0.21355941705, 0.3852444386, -10.0791669969
25.7218990326, -0.00590737885598, -0.0223236378444, -9.82000338295, 0.3565305674, 0.0023928226, -9.87458066455, -0.00698594306375, -0.0331231249332, -9.83167829506, 0.2285145583, 0.394815729, -10.0779705855
25.7721159458, -0.00527837611785, -0.0217263343605, -9.81920866062, 0.3601198013, -0.00658026215, -9.894321451, -0.00489913350014, -0.0356762485394, -9.83101170605, 0.23389840915, 0.36550365215, -10.0402836296
25.8223280907, -0.00555867982336, -0.00713361457878, -9.81656830279, 0.3505485109, 0.13579268255, -9.8847501606, -0.00519600307865, -0.0388564736054, -9.83069493067, 0.22313070745, 0.37268211995, -10.0558369765
25.8724930286, -0.00566592022942, -0.0142977915628, -9.81590580678, 0.36311082955, -0.04725824635, -9.88534836625, -0.00834260432921, -0.0432514686489, -9.82924010568, 0.18604195715, 0.3900300838, -10.0612208274
25.9227571487, -0.00512466902583, -0.0198435464904, -9.81687068119, 0.36670006345, -0.02691925425, -9.90090171315, -0.00932405253916, -0.0442510944521, -9.82733188655, 0.1974078645, 0.40378881375, -10.0582297991
25.97321105, -0.00288869999388, -0.0149171979004, -9.81735424591, 0.36191441825, 0.02452643165, -9.88774118885, -0.00959260461722, -0.0483150300887, -9.82498463348, 0.22791635265, 0.3816552047, -10.0648100613
26.0235631466, -0.00224700470254, -0.0158228309098, -9.81800802455, 0.35952159565, -0.01615155255, -9.9026963301, -0.0036895253783, -0.046798360143, -9.82402262945, 0.24107687695, 0.4007977855, -10.0707921177
26.0737509727, -0.0263553581271, 0.0148434209211, -9.7939274048, 0.1256231865, 0.30807590975, -9.64367328365, 0.0486064809621, -0.0467352428898, -9.81798509044, 0.7465606512, 0.3888336725, -9.98225768155
26.1239049435, -0.0402542170822, 0.0218102843988, -9.820425017, 0.3373879866, 0.12143574695, -9.9361958465, 0.0414588455109, -0.0325633395038, -9.81901148803, 0.2380858487, 0.26141586905, -10.060024416
26.1742999554, -0.035918609594, 0.0127052256739, -9.81800309384, 0.3661018578, -0.05324030285, -9.86620578545, 0.0357323119298, -0.0335852532184, -9.81971008931, 0.2021935097, 0.39421752335, -10.0689975008
26.2245261669, -0.0337967087647, 0.0162202321883, -9.81547409057, 0.32841490185, 0.13339985995, -9.8847501606, 0.0234330938777, -0.0351439017487, -9.81804249078, 0.19561324755, 0.4127618985, -10.0301141335
26.2746989727, -0.0283891722594, 0.00799868624101, -9.81615608562, 0.3529413335, -0.0131605243, -9.8799645154, 0.0125678006789, -0.0418414945305, -9.82157587778, 0.18963119105, 0.35952159565, -10.0827562307
26.3249950409, -0.0226259916841, -0.0050983804046, -9.81739741366, 0.3625126239, -0.0466600407, -9.90808018095, 0.0120018007038, -0.0374340858488, -9.82424153608, 0.2297109696, 0.38344982165, -10.0666046782
26.3752350807, -0.0155275230818, 0.00140371560024, -9.81511151287, 0.3684946804, 0.02931207685, -9.88295554365, 0.0052577781224, -0.0388811069333, -9.82648809124, 0.1974078645, 0.38584264425, -10.0683992951
26.4254291058, -0.0150627177552, -0.0025430704093, -9.81591025413, 0.3493520996, -0.0047856452, -9.88534836625, 0.00439016472815, -0.0370500828845, -9.82241681149, 0.2249253244, 0.41455651545, -10.048060303
26.4756290913, -0.0123576661243, -0.00444433424168, -9.81547802227, 0.35593236175, -0.02572284295, -9.88534836625, 0.000441697417369, -0.0414342707307, -9.82371918243, 0.20877377185, 0.37387853125, -10.0456674804
26.5257980824, -0.0100903469067, -0.00859006115476, -9.81632078582, 0.35832518435, -0.01734796385, -9.89133042275, -0.00318384333393, -0.0334411739419, -9.82367948045, 0.19680965885, 0.42771703975, -10.0701939121
26.5759370327, -0.00820219936418, -0.0157774190995, -9.81546683114, 0.35353953915, -0.01615155255, -9.88175913235, -0.00413758056114, -0.0316853270822, -9.82397506163, 0.20877377185, 0.39062828945, -10.0809616138
26.6261870861, -0.00472042990348, -0.0144617826451, -9.81713126274, 0.37028929735, 0.01734796385, -9.8763752815, -0.00436264859702, -0.0291696558256, -9.82294157768, 0.2129612114, 0.4366901245, -10.0672028838
26.6764199734, -0.00131504599399, -0.0209737569161, -9.81754301345, 0.3756731482, -0.0275174599, -9.8919286284, -0.00221527332543, -0.0278194458734, -9.82346285335, 0.22313070745, 0.39421752335, -10.0313105448
26.7266039848, -0.00340105990163, -0.0204115947181, -9.81869931134, 0.34277183745, 0.0155533469, -9.9026963301, -0.0031465569566, -0.030159928975, -9.82109099541, 0.2165504453, 0.3852444386, -10.0582297991
26.7767980099, -0.00337057456124, -0.0100030873338, -9.81572560111, 0.3625126239, -0.0095712904, -9.8763752815, -0.00672994133341, -0.0286747548593, -9.82169383851, 0.1950150419, 0.41694933805, -10.0743813517
26.8270039558, -0.0034209725036, -0.0156350251719, -9.82127107754, 0.36191441825, -0.05084748025, -9.9086783866, -0.00664790457406, -0.03301225165, -9.82240983938, 0.2105683888, 0.4007977855, -10.0588280047
26.8772821426, -0.00444883415942, -0.0216624986632, -9.82034915232, 0.34396824875, -0.00897308475, -9.8895358058, -0.00734117597449, -0.032798802851, -9.82391103679, 0.19920248145, 0.41814574935, -10.0755777629
26.9274761677, -0.00585663606152, -0.0271323514813, -9.81763361964, 0.34157542615, -0.02691925425, -9.8871429832, -0.00556089747455, -0.030810258715, -9.820035988, 0.22791635265, 0.4259224228, -10.0432746578
26.9776899815, -0.00484245872533, -0.0277510045204, -9.81766602191, 0.36191441825, 0.0011964113, -9.88893760015, -0.00674185687939, -0.0306143907881, -9.82208393008, 0.203389921, 0.40977087025, -10.0689975008
27.0279159546, -0.00413900123691, -0.0327888189546, -9.81592946215, 0.3649054465, -0.0227318147, -9.88056272105, -0.00333715357767, -0.0366403580263, -9.82237940272, 0.2165504453, 0.37387853125, -10.0683992951
27.0780911446, -0.0048150833994, -0.0280974471717, -9.81482603255, 0.35473595045, 0.03170489945, -9.8775716928, -0.00425866988192, -0.0402839319558, -9.82289336171, 0.21236300575, 0.3780659708, -10.0570333878
27.1283800602, -0.000924024028015, -0.0409754095496, -9.81250852513, 0.3732803256, -0.1447657673, -9.8644111685, -0.00356342247185, -0.0399510778202, -9.82452402597, 0.21116659445, 0.3780659708, -10.060024416
27.1785981655, 0.000189123556427, -0.0380535358912, -9.81312557963, 0.3613162126, -0.02931207685, -9.9050891527, -0.00470262887598, -0.0445690366721, -9.82647986875, 0.2165504453, 0.3768695595, -10.0749795573
27.2287549973, 0.00101173560521, -0.0313150080028, -9.81494172825, 0.3768695595, 0.00179461695, -9.90090171315, -0.00471864277154, -0.0395396579719, -9.83073717392, 0.21236300575, 0.4055834307, -10.0947203437
27.2790341377, 3.8967883717e-05, -0.0306903020653, -9.81780064575, 0.3637090352, -0.01854437515, -9.9050891527, -0.00427697773295, -0.0442116278278, -9.83242686649, 0.2093719775, 0.35473595045, -10.0749795573
27.3292429447, -0.00081493785372, -0.0320033502081, -9.80919968364, 0.3565305674, 0.00897308475, -9.8524470555, -0.00704075763167, -0.0438524435241, -9.83266157806, 0.2021935097, 0.39302111205, -10.0755777629
27.3794310093, -0.00182947129051, -0.0319058854666, -9.8128205765, 0.3625126239, -0.03050848815, -9.90449094705, -0.00692359400165, -0.0435175445751, -9.82988194309, 0.2189432679, 0.4019941968, -10.0576315934
27.4298090935, -0.000238245500084, -0.0345369688677, -9.8133859664, 0.35892339, -0.0227318147, -9.8847501606, -0.00876076891406, -0.0488038869779, -9.82910742485, 0.19082760235, 0.3625126239, -10.061819033
27.4800961018, 0.000557889652432, -0.0300578157429, -9.81314267055, 0.37148570865, 0.05802594805, -9.88295554365, -0.00805957471088, -0.0432809536576, -9.82698513282, 0.20159530405, 0.42293139455, -10.0612208274
27.5302500725, -0.00165698341033, -0.0268583174395, -9.81376613693, 0.34755748265, 0.0251246373, -9.8895358058, -0.00954223881039, -0.0436890371187, -9.82836374649, 0.1998006871, 0.4163511324, -10.0570333878
27.5804231167, -0.000232364664865, -0.0319557587565, -9.81490424841, 0.37507494255, -0.0430708068, -9.8775716928, -0.00773543628691, -0.0439415166412, -9.8275851467, 0.2057827436, 0.37866417645, -10.073783146
27.6306531429, 0.00196512844406, -0.0445143079878, -9.81765431638, 0.3732803256, -0.1495514125, -9.9038927414, -0.00759148450641, -0.0349324976808, -9.82417403591, 0.20757736055, 0.442672181, -10.0438728635
27.6809301376, 0.00118808564269, -0.0467356756206, -9.81535576628, 0.3637090352, -0.04247260115, -9.882357338, -0.00707057994519, -0.032272446474, -9.82465808154, 0.2165504453, 0.40019957985, -10.0612208274
27.7311601639, -0.000257789457278, -0.0496723145339, -9.81805047195, 0.3613162126, -0.02452643165, -9.90090171315, -0.00740291603004, -0.0349968360821, -9.82063621674, 0.2129612114, 0.38344982165, -10.0558369765
27.7813470364, 0.000565987273105, -0.0446863401064, -9.82246030436, 0.3577269787, 0.0203389921, -9.9146604431, -0.00694774976184, -0.0328210712685, -9.82251627685, 0.2189432679, 0.43130627365, -10.0905329042
27.8315069675, -0.00526902801606, -0.0432622949124, -9.82274633004, 0.33678978095, -0.0454636294, -9.8859465719, -0.00860549703038, -0.0325439408125, -9.81803216868, 0.191425808, 0.38823546685, -10.0522477426
27.8817100525, -0.00840438434601, -0.042557037141, -9.82381728831, 0.34037901485, -0.0059820565, -9.8799645154, -0.00859183070011, -0.0341602495141, -9.81656651764, 0.227318147, 0.40019957985, -10.0402836296
27.9320089817, -0.00977094048249, -0.0285806154443, -9.82040595869, 0.34995030525, 0.1411765334, -9.88893760015, -0.00664430979108, -0.0369862052896, -9.82144155738, 0.2069791549, 0.4055834307, -10.0785687912
27.9835050106, -0.00715162917032, -0.0290198112344, -9.81648389816, 0.3672982691, -0.0191425808, -9.88534836625, -0.00626149403027, -0.0326677536591, -9.82238495337, 0.215354034, 0.4354937132, -10.0713903234
28.0339281559, -0.00885947657636, -0.0222413910934, -9.81160587784, 0.34277183745, -0.0502492746, -9.84825961595, -0.00670840640932, -0.034822003847, -9.82300802136, 0.1938186306, 0.39421752335, -10.0630154443
28.0844261646, -0.0107503343689, -0.0252609125052, -9.81049242341, 0.3373879866, -0.01136590735, -9.86979501935, -0.00702527701455, -0.0409646054106, -9.82294192446, 0.20877377185, 0.34037901485, -10.0755777629
28.1346170902, -0.0132165326398, -0.0276714466875, -9.81357249238, 0.34277183745, -0.0047856452, -9.91047300355, -0.00754576265471, -0.0392265396476, -9.8260617115, 0.2093719775, 0.3637090352, -10.0779705855
28.1848299503, -0.0116893193157, -0.0146263495519, -9.81456793463, 0.3541377448, -0.0047856452, -9.89731247925, -0.00784112287281, -0.0407516197011, -9.82584612154, 0.2165504453, 0.36311082955, -10.0594262104
28.2350270748, -0.00883712126824, -0.020223337535, -9.81750385497, 0.35952159565, 0.01016949605, -9.90568735835, -0.00722493056998, -0.0554046872739, -9.82614407614, 0.20518453795, 0.3242274623, -10.0474620974
28.2852680683, -0.00835340393075, -0.00590094079919, -9.81930356704, 0.35473595045, 0.0143569356, -9.8895358058, -0.00465242539461, -0.0486299291152, -9.82562399509, 0.2117648001, 0.40498522505, -10.0570333878
28.3354949951, -0.00518986487941, -0.00869314229635, -9.81415526736, 0.36789647475, 0.00418743955, -9.86022372895, -0.00535993239264, -0.0413992693473, -9.82716654707, 0.19800607015, 0.4354937132, -10.0869436703
28.3857221603, -0.00686225145209, -0.0157442900291, -9.81345746012, 0.34995030525, -0.0155533469, -9.88175913235, -0.000400517405582, -0.0359230690637, -9.82336877686, 0.2237289131, 0.3768695595, -10.0713903234
28.4359531403, -0.00279758418469, -0.0169354477151, -9.81383467845, 0.37866417645, -0.03888336725, -9.88175913235, 0.000716217938478, -0.0355274524591, -9.82285726686, 0.2189432679, 0.39182470075, -10.0540423596
28.4862260818, -0.0036806791351, -0.0197128485602, -9.81532467249, 0.34875389395, -0.03170489945, -9.90329453575, 0.000890962674167, -0.0294881569954, -9.82532031293, 0.22671994135, 0.4091726646, -10.0995059889
28.536427021, -0.00391001035209, -0.0217796490244, -9.8128646916, 0.36071800695, -0.0311066938, -9.86859860805, 0.000306931740368, -0.0294436577737, -9.82289984165, 0.20757736055, 0.4019941968, -10.0815598194
28.5866770744, -0.00774027016269, -0.0289487177928, -9.81779322188, 0.34516466005, -0.05682953675, -9.9003035075, 0.0025873580072, -0.0316430381962, -9.82438570536, 0.24107687695, 0.3900300838, -10.061819033
28.6368610859, -0.0084331617803, -0.0269171832264, -9.81562797341, 0.3421736318, -0.0023928226, -9.87936630975, -0.000705649305853, -0.0307980157238, -9.82519697866, 0.2141576227, 0.41934216065, -10.0827562307
28.6870670319, -0.00521857639854, -0.0236883815089, -9.81811124001, 0.38225341035, 0.02931207685, -9.90209812445, -0.00547112100524, -0.0371428617198, -9.8285076037, 0.1902293967, 0.35892339, -10.0941221381
28.7372839451, -0.00352403482732, -0.0250331735207, -9.81755040165, 0.35593236175, -0.01136590735, -9.8871429832, -0.00550263692174, -0.0389142891671, -9.83068073518, 0.20159530405, 0.38344982165, -10.0755777629
28.7874820232, -0.00164347272302, -0.0275538796255, -9.81666292211, 0.37028929735, 0.0059820565, -9.8907322171, -0.0028387474536, -0.0373944711195, -9.82688834723, 0.2261217357, 0.4211367776, -10.0707921177
