TIME, IMU1_acc_x, IMU1_acc_y, IMU1_acc_z, IMU1_acc_raw_x, IMU1_acc_raw_y, IMU1_acc_raw_z,IMU2_acc_x, IMU2_acc_y,IMU2_acc_z, IMU2_acc_raw_x, IMU2_acc_raw_y, IMU2_acc_raw_z9.53674316406e-07, 0.0, 0.0, 0.0, 0.0, 0.0, 0.0, 0.0, 0.0, 0.0, 0.0, 0.0, 0.0
0.0501320362091, -0.196389690256, -0.179622241601, -14.1082949184, 0.0, 0.0, 0.0, -0.166389246297, -0.111002125172, -14.054179971, 0.0, 0.0, 0.0
0.100261926651, -0.204033674044, -0.170667739174, -14.1087394036, 0.0, 0.0, 0.0, -0.160144539083, -0.111445345016, -14.0444552922, 0.0, 0.0, 0.0
0.150422096252, -0.195303931694, -0.14582905465, -14.111117177, 0.0, 0.0, 0.0, -0.164537748699, -0.117432958133, -14.0426416355, 0.0, 0.0, 0.0
0.200577974319, -0.196614894845, -0.130831950924, -14.0985660746, 0.0, 0.0, 0.0, -0.167370623482, -0.150349928885, -14.0604966782, 0.0, 0.0, 0.0
0.25071811676, -0.198633855403, -0.126565233288, -14.1062974946, 0.0, 0.0, 0.0, -0.163201892236, -0.145519567903, -14.0524013072, 0.0, 0.0, 0.0
0.300863027573, -0.191542521344, -0.148424751828, -14.1051611787, 0.0, 0.0, 0.0, -0.161740540744, -0.133602846747, -14.0620563763, 0.0, 0.0, 0.0
0.351032972336, -0.194171549192, -0.169982859102, -14.0940597685, 0.0, 0.0, 0.0, -0.169041307802, -0.148078244411, -14.0605077503, 0.0, 0.0, 0.0
0.401199102402, -0.200132467835, -0.163928507537, -14.104189017, 0.0, 0.0, 0.0, -0.184796230936, -0.141266830717, -14.057345528, 0.0, 0.0, 0.0
0.451365947723, -0.204549137, -0.14996656823, -14.1039815241, 0.0, 0.0, 0.0, -0.174234332815, -0.135655014553, -14.0539126129, 0.0, 0.0, 0.0
0.501498937607, -0.201085870368, -0.154593555094, -14.0970205714, 0.0, 0.0, 0.0, -0.175446617197, -0.110933170253, -14.0484062943, 0.0, 0.0, 0.0
0.551765918732, -0.206934509872, -0.15825239952, -14.1001222202, 0.0, 0.0, 0.0, -0.177224888812, -0.12203290107, -14.0528015361, 0.0, 0.0, 0.0
0.601923942566, -0.214124798952, -0.159292954188, -14.1023212343, 0.0, 0.0, 0.0, -0.161602280184, -0.141756804911, -14.043125038, 0.0, 0.0, 0.0
0.652095079422, -0.211929217628, -0.144371527244, -14.1028267378, 0.0, 0.0, 0.0, -0.168183520209, -0.116362660095, -14.0416515718, 0.0, 0.0, 0.0
0.7022960186, -0.201106668778, -0.168923963195, -14.110523249, 0.0, 0.0, 0.0, -0.167372864267, -0.105320146303, -14.0507735198, 0.0, 0.0, 0.0
0.752434968948, -0.20101222064, -0.163190805542, -14.1114305449, 0.0, 0.0, 0.0, -0.172222786127, -0.122124043383, -14.0329955632, 0.0, 0.0, 0.0
0.802896022797, -0.202849903962, -0.164222252072, -14.1185204941, 0.0, 0.0, 0.0, -0.169105920013, -0.129274247497, -14.0380368399, 0.0, 0.0, 0.0
0.85310292244, -0.204250592535, -0.144283898042, -14.1110762443, 0.0, 0.0, 0.0, -0.173077117932, -0.128366770713, -14.0609274761, 0.0, 0.0, 0.0
0.90329003334, -0.207898849311, -0.147348714983, -14.1057750299, 0.0, 0.0, 0.0, -0.171646810442, -0.140127411857, -14.0487322589, 0.0, 0.0, 0.0
0.953480005264, -0.210409338595, -0.150520062897, -14.0986897048, 0.0, 0.0, 0.0, -0.176363708831, -0.136647549566, -14.0463441296, 0.0, 0.0, 0.0
1.00363993645, -0.209612414886, -0.14234752266, -14.1091791263, 0.0, 0.0, 0.0, -0.170641645945, -0.146865818503, -14.0587900931, 0.0, 0.0, 0.0
1.05380892754, -0.205110234039, -0.158783415302, -14.1104777088, 0.0, 0.0, 0.0, -0.16524985578, -0.133502508408, -14.0582770333, 0.0, 0.0, 0.0
1.10395002365, -0.208342961411, -0.175004773939, -14.1140862693, 0.0, 0.0, 0.0, -0.167518609528, -0.133250510671, -14.0584532938, 0.0, 0.0, 0.0
1.15411710739, -0.204434564141, -0.164572134822, -14.1159376635, 0.0, 0.0, 0.0, -0.168019525597, -0.155809088662, -14.0365519914, 0.0, 0.0, 0.0
1.20424604416, -0.205307641751, -0.157830292653, -14.1194070036, 0.0, 0.0, 0.0, -0.166274396056, -0.135266094946, -14.0614810832, 0.0, 0.0, 0.0
1.25439405441, -0.196841002291, -0.152427150694, -14.1130634907, 0.0, 0.0, 0.0, -0.16869329766, -0.0969368635689, -14.071460363, 0.0, 0.0, 0.0
1.30452394485, -0.201778384441, -0.134676642292, -14.114729164, 0.0, 0.0, 0.0, -0.175789121975, -0.121354434406, -14.0685371538, 0.0, 0.0, 0.0
1.35465693474, -0.200056240564, -0.130589751882, -14.1008611226, 0.0, 0.0, 0.0, -0.169463474038, -0.123414604218, -14.0498775503, 0.0, 0.0, 0.0
1.40480709076, -0.196830698158, -0.125870865533, -14.0993236685, 0.0, 0.0, 0.0, -0.17028601612, -0.132654839616, -14.0457834515, 0.0, 0.0, 0.0
1.45494103432, -0.209342975902, -0.158835327689, -14.0985410195, 0.0, 0.0, 0.0, -0.16444220884, -0.123031702166, -14.0497390717, 0.0, 0.0, 0.0
1.50509309769, -0.203310024312, -0.139855931405, -14.1055838156, 0.0, 0.0, 0.0, -0.172921213572, -0.14680700584, -14.044935405, 0.0, 0.0, 0.0
1.55525398254, -0.19901900617, -0.161235215058, -14.1082251696, 0.0, 0.0, 0.0, -0.165051756694, -0.147549175101, -14.0348309828, 0.0, 0.0, 0.0
1.60542702675, -0.187468579409, -0.168128268277, -14.1198358012, 0.0, 0.0, 0.0, -0.165812700902, -0.125620488383, -14.0387278459, 0.0, 0.0, 0.0
1.65556502342, -0.185233376741, -0.160412397517, -14.108198537, 0.0, 0.0, 0.0, -0.163799871213, -0.179480617133, -14.0506017511, 0.0, 0.0, 0.0
1.70573210716, -0.185053467128, -0.146405255773, -14.1039010405, 0.0, 0.0, 0.0, -0.171085475632, -0.156335915796, -14.0476479853, 0.0, 0.0, 0.0
1.75587201118, -0.190215614623, -0.145064970892, -14.1023539128, 0.0, 0.0, 0.0, -0.166014418378, -0.151936995813, -14.0606628058, 0.0, 0.0, 0.0
1.806016922, -0.204885112308, -0.170908106558, -14.0898465769, 0.0, 0.0, 0.0, -0.16512299734, -0.148381863504, -14.0521851063, 0.0, 0.0, 0.0
1.85614299774, -0.196383206327, -0.159989500931, -14.1009737263, 0.0, 0.0, 0.0, -0.174767904564, -0.157306606006, -14.0571661024, 0.0, 0.0, 0.0
1.9063141346, -0.199428252401, -0.159177517208, -14.109726707, 0.0, 0.0, 0.0, -0.161724726614, -0.154749149144, -14.0559125733, 0.0, 0.0, 0.0
1.9564909935, -0.205789319196, -0.144082868264, -14.1034268969, 0.0, 0.0, 0.0, -0.168820169141, -0.136750492173, -14.0519061354, 0.0, 0.0, 0.0
2.00666308403, -0.203044876626, -0.140075463418, -14.0992281457, 0.0, 0.0, 0.0, -0.165991976773, -0.134055124371, -14.0517674181, 0.0, 0.0, 0.0
2.05681395531, -0.207251547659, -0.1615867981, -14.0911967147, 0.0, 0.0, 0.0, -0.156943975092, -0.143693149986, -14.0509247923, 0.0, 0.0, 0.0
2.10695195198, -0.203803257557, -0.169552754308, -14.0942727241, 0.0, 0.0, 0.0, -0.160296902957, -0.147218628618, -14.0474624674, 0.0, 0.0, 0.0
2.15710997581, -0.198974879614, -0.144794123136, -14.1007442674, 0.0, 0.0, 0.0, -0.15399463326, -0.132939045625, -14.0486022702, 0.0, 0.0, 0.0
2.20730209351, -0.197040387146, -0.148577070326, -14.0948936454, 0.0, 0.0, 0.0, -0.159235217553, -0.143306170292, -14.0682049953, 0.0, 0.0, 0.0
2.25747990608, -0.192705289551, -0.14730019749, -14.0968930094, 0.0, 0.0, 0.0, -0.169152931306, -0.13378655038, -14.0573940212, 0.0, 0.0, 0.0
2.30761003494, -0.195637781287, -0.15425303615, -14.1118239165, 0.0, 0.0, 0.0, -0.168426567691, -0.1300320886, -14.0624383885, 0.0, 0.0, 0.0
2.35773897171, -0.205729427841, -0.142416717501, -14.11152571, 0.0, 0.0, 0.0, -0.166519663713, -0.124504350107, -14.0587516579, 0.0, 0.0, 0.0
2.40788412094, -0.207869548666, -0.139255399315, -14.1005298905, 0.0, 0.0, 0.0, -0.163167188907, -0.119969996864, -14.0517851894, 0.0, 0.0, 0.0
2.45803999901, -0.202195591709, -0.139996707968, -14.0936650054, 0.0, 0.0, 0.0, -0.170980807067, -0.1382403718, -14.0435723755, 0.0, 0.0, 0.0
2.50819802284, -0.198815383987, -0.155821119853, -14.1056778979, 0.0, 0.0, 0.0, -0.177390486823, -0.126149486172, -14.0457614574, 0.0, 0.0, 0.0
2.5583999157, -0.197283389638, -0.142879637237, -14.1015221664, 0.0, 0.0, 0.0, -0.179759264164, -0.121146754059, -14.0510399526, 0.0, 0.0, 0.0
2.60860300064, -0.194590194974, -0.156523057371, -14.1039675506, 0.0, 0.0, 0.0, -0.167904248636, -0.109497371577, -14.045798196, 0.0, 0.0, 0.0
2.65885090828, -0.197875604466, -0.165596982444, -14.1031533669, 0.0, 0.0, 0.0, -0.160799972296, -0.133890734351, -14.0433963876, 0.0, 0.0, 0.0
2.70906591415, -0.196809923767, -0.158789359661, -14.1092884184, 0.0, 0.0, 0.0, -0.17092020934, -0.118369397758, -14.0535152639, 0.0, 0.0, 0.0
2.75926113129, -0.197428829437, -0.146171391648, -14.1067029251, 0.0, 0.0, 0.0, -0.170671987449, -0.131588263385, -14.0486765832, 0.0, 0.0, 0.0
2.80942797661, -0.204588583226, -0.149496304916, -14.1083897084, 0.0, 0.0, 0.0, -0.167769002901, -0.148595324121, -14.0631717252, 0.0, 0.0, 0.0
2.85960507393, -0.197507719545, -0.152692566912, -14.1083147563, 0.0, 0.0, 0.0, -0.168164035671, -0.136312499384, -14.0695095229, 0.0, 0.0, 0.0
2.90980291367, -0.203875336893, -0.151436008972, -14.0960341508, 0.0, 0.0, 0.0, -0.165559207013, -0.129132521998, -14.0583697086, 0.0, 0.0, 0.0
2.95999503136, -0.207589500781, -0.158812355315, -14.0934177277, 0.0, 0.0, 0.0, -0.169493190837, -0.136864235706, -14.0707171648, 0.0, 0.0, 0.0
3.01012992859, -0.194431322613, -0.144230687913, -14.1025166047, 0.0, 0.0, 0.0, -0.164888737487, -0.142457122951, -14.0460361827, 0.0, 0.0, 0.0
3.06030011177, -0.190805570437, -0.151267189769, -14.1162500856, 0.0, 0.0, 0.0, -0.180419857809, -0.143361284509, -14.0519569641, 0.0, 0.0, 0.0
3.110476017, -0.189964681323, -0.16240574772, -14.1082018409, 0.0, 0.0, 0.0, -0.164390134821, -0.135003607754, -14.065801775, 0.0, 0.0, 0.0
3.16062903404, -0.20196937177, -0.151959697307, -14.1087493625, 0.0, 0.0, 0.0, -0.16289163055, -0.168862742556, -14.0671286185, 0.0, 0.0, 0.0
3.21076107025, -0.2036876539, -0.149986191108, -14.1068723069, 0.0, 0.0, 0.0, -0.16243764258, -0.144352617219, -14.0516608278, 0.0, 0.0, 0.0
3.26092100143, -0.19939831964, -0.166668315521, -14.1124382921, 0.0, 0.0, 0.0, -0.160977925779, -0.148596666063, -14.0651266472, 0.0, 0.0, 0.0
3.31107997894, -0.206741274472, -0.179787832794, -14.112376583, 0.0, 0.0, 0.0, -0.160391883745, -0.139119471752, -14.0473521375, 0.0, 0.0, 0.0
3.36129999161, -0.200174394067, -0.172351103344, -14.1132993238, 0.0, 0.0, 0.0, -0.158446310831, -0.13358431765, -14.0516079919, 0.0, 0.0, 0.0
3.41142511368, -0.201662874146, -0.159803925354, -14.0988544709, 0.0, 0.0, 0.0, -0.155727726187, -0.140778994228, -14.0433669147, 0.0, 0.0, 0.0
3.4615650177, -0.203032196982, -0.144422085155, -14.1000486265, 0.0, 0.0, 0.0, -0.16214810051, -0.139419068237, -14.0523442681, 0.0, 0.0, 0.0
3.51170897484, -0.204065024766, -0.154973015601, -14.1033062807, 0.0, 0.0, 0.0, -0.1675707374, -0.141033880951, -14.0449718092, 0.0, 0.0, 0.0
3.56182408333, -0.19591671721, -0.14725277048, -14.1146807868, 0.0, 0.0, 0.0, -0.168001080246, -0.140692932844, -14.061987867, 0.0, 0.0, 0.0
3.61197400093, -0.195750061115, -0.13512327017, -14.1198234352, 0.0, 0.0, 0.0, -0.159101668667, -0.11666460815, -14.0620085732, 0.0, 0.0, 0.0
3.66212511063, -0.194314271219, -0.142036069611, -14.1167878325, 0.0, 0.0, 0.0, -0.158976429052, -0.111668269305, -14.0500405804, 0.0, 0.0, 0.0
3.71227002144, -0.198633903999, -0.151302560117, -14.1137728783, 0.0, 0.0, 0.0, -0.156953667712, -0.140571042472, -14.0520451596, 0.0, 0.0, 0.0
3.76247692108, -0.19847373106, -0.15360433759, -14.1029122805, 0.0, 0.0, 0.0, -0.161561573988, -0.137580368509, -14.0600097817, 0.0, 0.0, 0.0
3.81260299683, -0.202610217902, -0.132166718605, -14.1109866242, 0.0, 0.0, 0.0, -0.162570768861, -0.11959943455, -14.0544874429, 0.0, 0.0, 0.0
3.862803936, -0.205111881631, -0.133084741358, -14.1035108412, 0.0, 0.0, 0.0, -0.163306407537, -0.0978425315865, -14.0567822062, 0.0, 0.0, 0.0
3.91295289993, -0.203586833486, -0.13628679882, -14.109637881, 0.0, 0.0, 0.0, -0.16398627785, -0.108400551514, -14.0626929405, 0.0, 0.0, 0.0
3.96311497688, -0.192473387688, -0.140086019647, -14.1107027542, 0.0, 0.0, 0.0, -0.158494774125, -0.143223345444, -14.0512852248, 0.0, 0.0, 0.0
4.01360106468, -0.194328644119, -0.13985155536, -14.0987311718, 0.0, 0.0, 0.0, -0.170572181305, -0.128337716025, -14.0497178725, 0.0, 0.0, 0.0
4.06377100945, -0.197466929405, -0.146018993132, -14.1065676567, 0.0, 0.0, 0.0, -0.181271090429, -0.113622326262, -14.0565672899, 0.0, 0.0, 0.0
4.11395597458, -0.194551267922, -0.143130351823, -14.1075633061, 0.0, 0.0, 0.0, -0.171792891009, -0.125952766311, -14.0550758622, 0.0, 0.0, 0.0
4.16412806511, -0.19364255639, -0.150565606276, -14.1074929336, 0.0, 0.0, 0.0, -0.163942245129, -0.0979092867821, -14.0627466679, 0.0, 0.0, 0.0
4.21429610252, -0.195821346093, -0.138997700723, -14.0971735329, 0.0, 0.0, 0.0, -0.165679976415, -0.0985480225795, -14.0598806329, 0.0, 0.0, 0.0
4.26451706886, -0.193121563489, -0.125399585027, -14.0940320709, 0.0, 0.0, 0.0, -0.163993945079, -0.0954227394389, -14.0523163731, 0.0, 0.0, 0.0
4.31470990181, -0.205190148681, -0.164485949871, -14.0998096312, 0.0, 0.0, 0.0, -0.168062020619, -0.105097240496, -14.053319475, 0.0, 0.0, 0.0
4.36489892006, -0.199724562303, -0.134922951302, -14.0899767858, 0.0, 0.0, 0.0, -0.166511743129, -0.1104672114, -14.0547452883, 0.0, 0.0, 0.0
4.41504907608, -0.196077830941, -0.149064428183, -14.0937839323, 0.0, 0.0, 0.0, -0.180876486896, -0.111438380453, -14.0469873221, 0.0, 0.0, 0.0
4.46524500847, -0.190462545364, -0.156865347516, -14.1145999141, 0.0, 0.0, 0.0, -0.171578671361, -0.0983138253233, -14.0379600617, 0.0, 0.0, 0.0
4.51543712616, -0.199027066382, -0.148064803725, -14.1072265863, 0.0, 0.0, 0.0, -0.173753058775, -0.135144479886, -14.0403935653, 0.0, 0.0, 0.0
4.5655810833, -0.197550581294, -0.158006244826, -14.1131240894, 0.0, 0.0, 0.0, -0.171879948077, -0.138285020461, -14.0324730381, 0.0, 0.0, 0.0
4.61570811272, -0.196274883818, -0.175347873717, -14.1117723898, 0.0, 0.0, 0.0, -0.17079882293, -0.13144318989, -14.033829779, 0.0, 0.0, 0.0
4.66585898399, -0.189551831187, -0.1643342278, -14.1092209213, 0.0, 0.0, 0.0, -0.165113619972, -0.137347640029, -14.033980274, 0.0, 0.0, 0.0
4.71599006653, -0.189816950537, -0.16530684733, -14.1152225111, 0.0, 0.0, 0.0, -0.163648281951, -0.142350891724, -14.0386913173, 0.0, 0.0, 0.0
4.76612591743, -0.194524391077, -0.146640194817, -14.1084268112, 0.0, 0.0, 0.0, -0.166313083812, -0.112137005788, -14.0544383989, 0.0, 0.0, 0.0
4.81630301476, -0.200477792559, -0.147773883512, -14.1025280221, 0.0, 0.0, 0.0, -0.165715833913, -0.1697868607, -14.0615847011, 0.0, 0.0, 0.0
4.8664689064, -0.204116252627, -0.153681937241, -14.1028427421, 0.0, 0.0, 0.0, -0.161292950538, -0.157549088909, -14.0600484529, 0.0, 0.0, 0.0
4.91666412354, -0.210665303153, -0.137514834404, -14.1145345002, 0.0, 0.0, 0.0, -0.160553272243, -0.133005595517, -14.0608655691, 0.0, 0.0, 0.0
4.96680808067, -0.208103385866, -0.143678826836, -14.1105417621, 0.0, 0.0, 0.0, -0.170601644514, -0.134675474313, -14.0478269597, 0.0, 0.0, 0.0
5.0169479847, -0.209731839787, -0.160513190783, -14.1161329609, 0.0, 0.0, 0.0, -0.170178473603, -0.135973938899, -14.044139498, 0.0, 0.0, 0.0
5.06712007523, -0.206957711843, -0.149463641562, -14.1056935945, 0.0, 0.0, 0.0, -0.177660670271, -0.12738030636, -14.0502283229, 0.0, 0.0, 0.0
5.1172580719, -0.199204111993, -0.127621424922, -14.0969540646, 0.0, 0.0, 0.0, -0.173719491731, -0.139252511366, -14.055413241, 0.0, 0.0, 0.0
5.16740202904, -0.20512196557, -0.143087762494, -14.1071223528, 0.0, 0.0, 0.0, -0.174124145388, -0.146731597467, -14.041749627, 0.0, 0.0, 0.0
5.21754193306, -0.201703618991, -0.128286517054, -14.1041749953, 0.0, 0.0, 0.0, -0.16986513931, -0.129685997881, -14.0510736625, 0.0, 0.0, 0.0
5.26772403717, -0.202820265444, -0.145026396537, -14.1166947977, 0.0, 0.0, 0.0, -0.167356810436, -0.126334561321, -14.0591604301, 0.0, 0.0, 0.0
5.31804299355, -0.191303583028, -0.127680977262, -14.1123970593, 0.0, 0.0, 0.0, -0.1711512135, -0.150601164173, -14.046695564, 0.0, 0.0, 0.0
5.36819410324, -0.185749040921, -0.138528362419, -14.1083986652, 0.0, 0.0, 0.0, -0.179511355676, -0.111701627535, -14.0497763001, 0.0, 0.0, 0.0
5.41836690903, -0.18725431992, -0.135135815312, -14.1069768663, 0.0, 0.0, 0.0, -0.179684224222, -0.123137991266, -14.0482048371, 0.0, 0.0, 0.0
5.46851706505, -0.195685924828, -0.134703771484, -14.1035679079, 0.0, 0.0, 0.0, -0.170790935893, -0.134603646842, -14.0492254933, 0.0, 0.0, 0.0
5.51875090599, -0.186722246478, -0.138160720194, -14.1025788513, 0.0, 0.0, 0.0, -0.165595000014, -0.124765526396, -14.0360298437, 0.0, 0.0, 0.0
5.56890702248, -0.190720624808, -0.141975746396, -14.0988497577, 0.0, 0.0, 0.0, -0.16258741907, -0.137331902526, -14.0368052109, 0.0, 0.0, 0.0
5.61909890175, -0.197225743826, -0.170395616553, -14.0947061038, 0.0, 0.0, 0.0, -0.170269882903, -0.143180544382, -14.0580796301, 0.0, 0.0, 0.0
5.66925692558, -0.200320634534, -0.179773869898, -14.0976168512, 0.0, 0.0, 0.0, -0.166288899648, -0.125977626647, -14.0620191316, 0.0, 0.0, 0.0
5.71943092346, -0.199751650424, -0.162073637016, -14.1125436231, 0.0, 0.0, 0.0, -0.168978447143, -0.112539537566, -14.0539546686, 0.0, 0.0, 0.0
5.76959204674, -0.198746578185, -0.168384531062, -14.1064910606, 0.0, 0.0, 0.0, -0.169779320945, -0.130394033404, -14.0694418611, 0.0, 0.0, 0.0
5.81974005699, -0.200930173586, -0.150593010281, -14.1108461888, 0.0, 0.0, 0.0, -0.164087137335, -0.124810285805, -14.0583820151, 0.0, 0.0, 0.0
5.86991691589, -0.19840873277, -0.144686490183, -14.1162704809, 0.0, 0.0, 0.0, -0.159608328879, -0.127876581511, -14.0497586588, 0.0, 0.0, 0.0
5.92006111145, -0.197360112793, -0.133786628056, -14.1173728421, 0.0, 0.0, 0.0, -0.161124474353, -0.134352788203, -14.0584694569, 0.0, 0.0, 0.0
5.97019290924, -0.194671525667, -0.151504589123, -14.1214929142, 0.0, 0.0, 0.0, -0.154987780714, -0.143070479483, -14.0494009821, 0.0, 0.0, 0.0
6.02032899857, -0.191908807802, -0.164619300209, -14.105262895, 0.0, 0.0, 0.0, -0.157482797406, -0.157748335476, -14.040350523, 0.0, 0.0, 0.0
6.07047891617, -0.193073984056, -0.153214864297, -14.1054868209, 0.0, 0.0, 0.0, -0.163691985236, -0.139656666846, -14.0380344573, 0.0, 0.0, 0.0
6.1206600666, -0.200007692002, -0.155550950485, -14.0973571928, 0.0, 0.0, 0.0, -0.171463175736, -0.132981471957, -14.0466008944, 0.0, 0.0, 0.0
6.17082309723, -0.197854097633, -0.127700663488, -14.0995459901, 0.0, 0.0, 0.0, -0.168502624975, -0.130051697819, -14.0536183337, 0.0, 0.0, 0.0
6.22098398209, -0.198596713986, -0.145019988145, -14.1002258415, 0.0, 0.0, 0.0, -0.160534888933, -0.123519597704, -14.0326074967, 0.0, 0.0, 0.0
6.27114009857, -0.207238619111, -0.181153805925, -14.0922774851, 0.0, 0.0, 0.0, -0.168248285612, -0.148150133329, -14.0311484983, 0.0, 0.0, 0.0
6.32127594948, -0.208746581462, -0.170525593823, -14.0992012117, 0.0, 0.0, 0.0, -0.163570254058, -0.137205355849, -14.0407492883, 0.0, 0.0, 0.0
6.37142205238, -0.204363763026, -0.169214112809, -14.1091557987, 0.0, 0.0, 0.0, -0.148977567129, -0.117039919124, -14.0543073071, 0.0, 0.0, 0.0
6.42173409462, -0.200750690648, -0.156920245774, -14.100001261, 0.0, 0.0, 0.0, -0.148818322553, -0.103749215831, -14.0447617569, 0.0, 0.0, 0.0
6.47188591957, -0.207069401107, -0.147410373533, -14.1069806199, 0.0, 0.0, 0.0, -0.158918048566, -0.124481453728, -14.049187768, 0.0, 0.0, 0.0
6.52205300331, -0.205685682754, -0.136378858979, -14.1048496931, 0.0, 0.0, 0.0, -0.162992445909, -0.130850082938, -14.0473316735, 0.0, 0.0, 0.0
6.57221198082, -0.196344604097, -0.128367513854, -14.0997262578, 0.0, 0.0, 0.0, -0.163298714025, -0.142545351346, -14.056872571, 0.0, 0.0, 0.0
6.62237596512, -0.195679457725, -0.132045312625, -14.1042494516, 0.0, 0.0, 0.0, -0.152941838054, -0.145751151568, -14.0544377191, 0.0, 0.0, 0.0
6.67254805565, -0.204502886645, -0.135575765749, -14.1150011293, 0.0, 0.0, 0.0, -0.158368203602, -0.140274028481, -14.0585095728, 0.0, 0.0, 0.0
6.72269392014, -0.205709328309, -0.138230649782, -14.1168325553, 0.0, 0.0, 0.0, -0.165830284135, -0.137091016927, -14.0485058483, 0.0, 0.0, 0.0
6.77284193039, -0.198192542607, -0.144671768423, -14.1114068111, 0.0, 0.0, 0.0, -0.164325874199, -0.135137460573, -14.044310827, 0.0, 0.0, 0.0
6.82299590111, -0.195881663852, -0.132796782438, -14.1066461579, 0.0, 0.0, 0.0, -0.16373791766, -0.151218825818, -14.0496468726, 0.0, 0.0, 0.0
6.87316703796, -0.20317276151, -0.165213978722, -14.1077648368, 0.0, 0.0, 0.0, -0.156011020872, -0.148066984638, -14.0447093751, 0.0, 0.0, 0.0
6.92332696915, -0.204557289631, -0.161947413035, -14.1011822236, 0.0, 0.0, 0.0, -0.162706846446, -0.128989293636, -14.0458007772, 0.0, 0.0, 0.0
6.97351813316, -0.20344877422, -0.168192896273, -14.1139615281, 0.0, 0.0, 0.0, -0.170879249243, -0.122445285869, -14.0609007824, 0.0, 0.0, 0.0
7.02365708351, -0.204008295176, -0.164817123214, -14.108421428, 0.0, 0.0, 0.0, -0.163006043773, -0.138549186487, -14.0607938454, 0.0, 0.0, 0.0
7.07392001152, -0.199461130296, -0.149603925853, -14.1071745987, 0.0, 0.0, 0.0, -0.169091392388, -0.143713056683, -14.0655279132, 0.0, 0.0, 0.0
7.12438201904, -0.19354543884, -0.152920768096, -14.11035228, 0.0, 0.0, 0.0, -0.159253474858, -0.150378664366, -14.0619701273, 0.0, 0.0, 0.0
7.17456912994, -0.186775785028, -0.140056508718, -14.1020767172, 0.0, 0.0, 0.0, -0.154987897312, -0.147153375579, -14.050031504, 0.0, 0.0, 0.0
7.22470808029, -0.190468755135, -0.133549998385, -14.1080039444, 0.0, 0.0, 0.0, -0.164516233553, -0.146373537821, -14.0413422115, 0.0, 0.0, 0.0
7.2748439312, -0.19629862331, -0.109271012444, -14.1162243361, 0.0, 0.0, 0.0, -0.166509865656, -0.136130297507, -14.0458672981, 0.0, 0.0, 0.0
7.32510590553, -0.208271327426, -0.112005082083, -14.1102210331, 0.0, 0.0, 0.0, -0.163068315165, -0.134545570592, -14.052874739, 0.0, 0.0, 0.0
7.37547111511, -0.195736843772, -0.124157054778, -14.1114802687, 0.0, 0.0, 0.0, -0.156947682098, -0.128400905189, -14.0499175346, 0.0, 0.0, 0.0
7.42564702034, -0.196164843299, -0.135703725093, -14.1051025516, 0.0, 0.0, 0.0, -0.157144523166, -0.137650440702, -14.0623499372, 0.0, 0.0, 0.0
7.47582793236, -0.197835246022, -0.142648622725, -14.1155166088, 0.0, 0.0, 0.0, -0.165008331025, -0.142094672665, -14.046576122, 0.0, 0.0, 0.0
7.52599596977, -0.195819852684, -0.12694040783, -14.1064336433, 0.0, 0.0, 0.0, -0.161149843086, -0.100304470166, -14.0372484046, 0.0, 0.0, 0.0
7.57619309425, -0.202962868214, -0.147855712414, -14.0955989121, 0.0, 0.0, 0.0, -0.167037734505, -0.127165619201, -14.0571710875, 0.0, 0.0, 0.0
7.62637400627, -0.213975169545, -0.148666473559, -14.1047388142, 0.0, 0.0, 0.0, -0.168544995578, -0.111403395521, -14.0463448969, 0.0, 0.0, 0.0
7.67663311958, -0.214319945131, -0.144599364958, -14.0975008757, 0.0, 0.0, 0.0, -0.165663003761, -0.118693211475, -14.0460854728, 0.0, 0.0, 0.0
7.72680997849, -0.214767174249, -0.1574377338, -14.1071247823, 0.0, 0.0, 0.0, -0.166277761378, -0.125265793009, -14.0459296861, 0.0, 0.0, 0.0
7.77700901031, -0.191118199463, -0.15778962871, -14.1033202353, 0.0, 0.0, 0.0, -0.164012976299, -0.122857491181, -14.0489457858, 0.0, 0.0, 0.0
7.82721304893, -0.192216338879, -0.155865574986, -14.1056082987, 0.0, 0.0, 0.0, -0.162897006384, -0.129019919645, -14.0586172356, 0.0, 0.0, 0.0
7.87738204002, -0.189422203962, -0.159785296909, -14.1175506619, 0.0, 0.0, 0.0, -0.162599661603, -0.142939465, -14.0556324666, 0.0, 0.0, 0.0
7.92752695084, -0.193923829024, -0.147941535565, -14.1131424194, 0.0, 0.0, 0.0, -0.154134289055, -0.138414575609, -14.0474440099, 0.0, 0.0, 0.0
7.97800302505, -0.199545402357, -0.153317429661, -14.120149403, 0.0, 0.0, 0.0, -0.162739097766, -0.153829065904, -14.0501700596, 0.0, 0.0, 0.0
8.02817606926, -0.199820578999, -0.169978700998, -14.1034805379, 0.0, 0.0, 0.0, -0.170289273264, -0.16078142139, -14.0492258977, 0.0, 0.0, 0.0
8.07831096649, -0.19884074606, -0.157101147258, -14.1011155833, 0.0, 0.0, 0.0, -0.163185300092, -0.1254057241, -14.0612035344, 0.0, 0.0, 0.0
8.12847399712, -0.202912180567, -0.132889448953, -14.1088718964, 0.0, 0.0, 0.0, -0.16347017483, -0.132745376719, -14.0599496135, 0.0, 0.0, 0.0
8.17865896225, -0.20357367816, -0.140322497343, -14.1027940533, 0.0, 0.0, 0.0, -0.157075396289, -0.137535608679, -14.0523355569, 0.0, 0.0, 0.0
8.22880911827, -0.205704250349, -0.141547728393, -14.1124420757, 0.0, 0.0, 0.0, -0.172022318231, -0.13518996445, -14.0472553946, 0.0, 0.0, 0.0
8.27897810936, -0.205669315871, -0.143560875724, -14.1161216053, 0.0, 0.0, 0.0, -0.165395295561, -0.129720653664, -14.0437372297, 0.0, 0.0, 0.0
8.32911801338, -0.205697015777, -0.140496531133, -14.1189176672, 0.0, 0.0, 0.0, -0.167587198814, -0.137896452972, -14.0438264355, 0.0, 0.0, 0.0
8.37927412987, -0.198961055415, -0.150845779921, -14.0971129972, 0.0, 0.0, 0.0, -0.15866950007, -0.145668986143, -14.0441066536, 0.0, 0.0, 0.0
8.42982411385, -0.198114780967, -0.159519532499, -14.1045739454, 0.0, 0.0, 0.0, -0.157900487162, -0.142820619512, -14.0538447749, 0.0, 0.0, 0.0
8.4801030159, -0.204553090272, -0.150311630819, -14.097805837, 0.0, 0.0, 0.0, -0.163758018257, -0.143675042737, -14.0540795697, 0.0, 0.0, 0.0
8.53034806252, -0.198845434397, -0.14331248457, -14.1050393515, 0.0, 0.0, 0.0, -0.166772962197, -0.152670168441, -14.0298231157, 0.0, 0.0, 0.0
8.58059692383, -0.198364484228, -0.15718822699, -14.1127573879, 0.0, 0.0, 0.0, -0.166565306089, -0.128915901007, -14.0250757455, 0.0, 0.0, 0.0
8.63072705269, -0.201248462346, -0.170670349928, -14.1163425372, 0.0, 0.0, 0.0, -0.17446990519, -0.125818466971, -14.0517382142, 0.0, 0.0, 0.0
8.68088912964, -0.205196991595, -0.153734813461, -14.1074208041, 0.0, 0.0, 0.0, -0.179202228108, -0.13485590275, -14.0493384447, 0.0, 0.0, 0.0
8.73104500771, -0.207624934047, -0.133943759462, -14.1062016588, 0.0, 0.0, 0.0, -0.179483175779, -0.137487995814, -14.0538141684, 0.0, 0.0, 0.0
8.78124094009, -0.203291055631, -0.138421397037, -14.1061121844, 0.0, 0.0, 0.0, -0.173387826018, -0.157571473665, -14.0510287855, 0.0, 0.0, 0.0
8.8314499855, -0.207000311212, -0.130998971174, -14.1134107634, 0.0, 0.0, 0.0, -0.166480872341, -0.149693857811, -14.0358813477, 0.0, 0.0, 0.0
8.88159203529, -0.206874021737, -0.125951617203, -14.1038466623, 0.0, 0.0, 0.0, -0.161144447835, -0.13372633103, -14.0454919659, 0.0, 0.0, 0.0
8.93176698685, -0.206335679373, -0.129783532692, -14.0993575674, 0.0, 0.0, 0.0, -0.161937055368, -0.113577913, -14.0526607869, 0.0, 0.0, 0.0
8.9819829464, -0.200399409476, -0.15103836536, -14.1070857786, 0.0, 0.0, 0.0, -0.165837028277, -0.130683856327, -14.0403719481, 0.0, 0.0, 0.0
9.03212594986, -0.201868681607, -0.159711687638, -14.1152199953, 0.0, 0.0, 0.0, -0.169190054425, -0.12397139355, -14.0447906129, 0.0, 0.0, 0.0
9.08228302002, -0.193015003023, -0.152495156273, -14.0968833571, 0.0, 0.0, 0.0, -0.166548400121, -0.123647877163, -14.0411475504, 0.0, 0.0, 0.0
9.13240790367, -0.192018321017, -0.151093919239, -14.1054044376, 0.0, 0.0, 0.0, -0.173388239239, -0.121465883881, -14.0527697331, 0.0, 0.0, 0.0
9.18254899979, -0.194205940633, -0.134297550179, -14.1005192477, 0.0, 0.0, 0.0, -0.155769808966, -0.137288614958, -14.0520821536, 0.0, 0.0, 0.0
9.23272895813, -0.191147139089, -0.146246535307, -14.1003152884, 0.0, 0.0, 0.0, -0.158511048449, -0.13297652969, -14.0605833883, 0.0, 0.0, 0.0
9.2829220295, -0.193900781882, -0.136041896206, -14.1029691461, 0.0, 0.0, 0.0, -0.159986843247, -0.145164490134, -14.0503516484, 0.0, 0.0, 0.0
9.33314704895, -0.194766311857, -0.132583742555, -14.1045690508, 0.0, 0.0, 0.0, -0.166053124934, -0.136593952164, -14.0363382587, 0.0, 0.0, 0.0
9.38342308998, -0.186842155291, -0.142434042093, -14.1045122861, 0.0, 0.0, 0.0, -0.170296527284, -0.119289232576, -14.0390567764, 0.0, 0.0, 0.0
9.4337990284, -0.184364878498, -0.131671390519, -14.1072724938, 0.0, 0.0, 0.0, -0.169571797259, -0.13360234796, -14.0447945568, 0.0, 0.0, 0.0
9.48399496078, -0.198215542157, -0.14777342335, -14.1116455573, 0.0, 0.0, 0.0, -0.174339956885, -0.137314327803, -14.0522418568, 0.0, 0.0, 0.0
9.53419589996, -0.205173469916, -0.164122566364, -14.1056348485, 0.0, 0.0, 0.0, -0.167926233605, -0.132944396948, -14.0464232544, 0.0, 0.0, 0.0
9.58437490463, -0.206415498998, -0.168385653806, -14.1179878809, 0.0, 0.0, 0.0, -0.167779798694, -0.144392248057, -14.0553054075, 0.0, 0.0, 0.0
9.6345179081, -0.203130111785, -0.149196302447, -14.1100073712, 0.0, 0.0, 0.0, -0.175481656461, -0.142761469508, -14.0597286086, 0.0, 0.0, 0.0
9.684664011, -0.201493895575, -0.162198533121, -14.1016155905, 0.0, 0.0, 0.0, -0.170306777154, -0.135779191536, -14.0684531644, 0.0, 0.0, 0.0
9.73483705521, -0.197658224608, -0.15593997765, -14.1033366462, 0.0, 0.0, 0.0, -0.169317514426, -0.13161009963, -14.0548812006, 0.0, 0.0, 0.0
9.78506994247, -0.196759184291, -0.147982034491, -14.0948138963, 0.0, 0.0, 0.0, -0.165874270355, -0.137450778329, -14.0513697181, 0.0, 0.0, 0.0
9.83522391319, -0.204717179456, -0.143521913525, -14.1048209048, 0.0, 0.0, 0.0, -0.161452945941, -0.128570783618, -14.0543272874, 0.0, 0.0, 0.0
9.88537311554, -0.200778616014, -0.13441483509, -14.1065888533, 0.0, 0.0, 0.0, -0.166547302278, -0.133017321032, -14.0493278027, 0.0, 0.0, 0.0
9.93552994728, -0.209549307841, -0.150839896938, -14.11251486, 0.0, 0.0, 0.0, -0.166982869169, -0.12445514877, -14.0447139366, 0.0, 0.0, 0.0
9.98571395874, -0.207408308679, -0.151849821378, -14.1079947549, 0.0, 0.0, 0.0, -0.168336101798, -0.13279053634, -14.0454658624, 0.0, 0.0, 0.0
10.03678298, -0.206142702663, -0.197277841337, -14.1121621561, 0.0, 0.0, 0.0, -0.160949417789, -0.163833422426, -14.0275843849, 0.0, 0.0, 0.0
10.0869619846, -0.191058072221, -0.166687168529, -14.1110937669, 0.0, 0.0, 0.0, -0.167386591466, -0.154824374287, -14.0352348724, 0.0, 0.0, 0.0
10.1370999813, -0.195218796472, -0.161176459761, -14.1125723014, 0.0, 0.0, 0.0, -0.169972579014, -0.121591497627, -14.0441176832, 0.0, 0.0, 0.0
10.1872549057, -0.190018651808, -0.177853891846, -14.098998867, 0.0, 0.0, 0.0, -0.157547864195, -0.145849423987, -14.0450114851, 0.0, 0.0, 0.0
10.237404108, -0.200589904639, -0.158925700585, -14.0923802125, 0.0, 0.0, 0.0, -0.166310684124, -0.146205178166, -14.0498135589, 0.0, 0.0, 0.0
10.2875599861, -0.1938365777, -0.148315140366, -14.0984784096, 0.0, 0.0, 0.0, -0.171981913013, -0.141601327004, -14.0583263141, 0.0, 0.0, 0.0
10.3376910686, -0.196748311147, -0.157295682742, -14.1021631423, 0.0, 0.0, 0.0, -0.160688596252, -0.149263553323, -14.0650528102, 0.0, 0.0, 0.0
10.3878231049, -0.201097644931, -0.144660007672, -14.1031317689, 0.0, 0.0, 0.0, -0.164463530387, -0.144283232239, -14.0549427375, 0.0, 0.0, 0.0
10.437951088, -0.201699798372, -0.148730905636, -14.1020306298, 0.0, 0.0, 0.0, -0.164217636892, -0.146564845074, -14.0585444132, 0.0, 0.0, 0.0
10.4880781174, -0.197698563335, -0.153098467808, -14.102869613, 0.0, 0.0, 0.0, -0.169747983751, -0.136160812275, -14.0616866853, 0.0, 0.0, 0.0
10.5382580757, -0.201649204982, -0.157691685245, -14.1022240545, 0.0, 0.0, 0.0, -0.174471951972, -0.119592814926, -14.0700365609, 0.0, 0.0, 0.0
10.5884160995, -0.200432276617, -0.168696263779, -14.1005028776, 0.0, 0.0, 0.0, -0.171846050535, -0.107953496945, -14.0612673555, 0.0, 0.0, 0.0
10.6385750771, -0.193691739829, -0.135609159065, -14.1109306499, 0.0, 0.0, 0.0, -0.168796689835, -0.130715631033, -14.0607918927, 0.0, 0.0, 0.0
10.6887431145, -0.200459113587, -0.117731980322, -14.1121495972, 0.0, 0.0, 0.0, -0.163797440584, -0.1100558092, -14.0579681364, 0.0, 0.0, 0.0
10.738929987, -0.19368006854, -0.134201996385, -14.1179499105, 0.0, 0.0, 0.0, -0.164788697713, -0.133611841716, -14.0481897507, 0.0, 0.0, 0.0
10.7890911102, -0.190545159964, -0.143420249124, -14.1178967712, 0.0, 0.0, 0.0, -0.173776118699, -0.143555041117, -14.0408010384, 0.0, 0.0, 0.0
10.8392560482, -0.187507538675, -0.15441014963, -14.1012008871, 0.0, 0.0, 0.0, -0.173202265454, -0.132234424179, -14.0437539731, 0.0, 0.0, 0.0
10.8894910812, -0.190255219254, -0.138098863859, -14.104247111, 0.0, 0.0, 0.0, -0.176009861599, -0.127655948056, -14.0445730758, 0.0, 0.0, 0.0
10.9396650791, -0.186887926019, -0.136156420421, -14.1099382039, 0.0, 0.0, 0.0, -0.169451295422, -0.141352346694, -14.0456706133, 0.0, 0.0, 0.0
10.989839077, -0.188769456701, -0.132442423044, -14.1022877777, 0.0, 0.0, 0.0, -0.162268391515, -0.123097752569, -14.043053745, 0.0, 0.0, 0.0
11.0399980545, -0.193376252983, -0.136521880829, -14.1015612578, 0.0, 0.0, 0.0, -0.161708663932, -0.132881534789, -14.0463293242, 0.0, 0.0, 0.0
11.0901579857, -0.200889915392, -0.149272564327, -14.0955917924, 0.0, 0.0, 0.0, -0.164974654628, -0.154213412214, -14.0451483925, 0.0, 0.0, 0.0
11.1402919292, -0.199117447373, -0.152284522025, -14.1059593275, 0.0, 0.0, 0.0, -0.170165234308, -0.13302042996, -14.0593801792, 0.0, 0.0, 0.0
11.1904630661, -0.202322664643, -0.146833339432, -14.1077000955, 0.0, 0.0, 0.0, -0.168248310029, -0.159004918561, -14.0445931703, 0.0, 0.0, 0.0
11.24061203, -0.200756555862, -0.140322388643, -14.1124888685, 0.0, 0.0, 0.0, -0.171273123407, -0.120937279517, -14.0498044035, 0.0, 0.0, 0.0
11.2907829285, -0.201979601186, -0.167257032779, -14.1197192208, 0.0, 0.0, 0.0, -0.177102650755, -0.126145460046, -14.0519143895, 0.0, 0.0, 0.0
11.340939045, -0.210016886563, -0.162337523069, -14.1235177613, 0.0, 0.0, 0.0, -0.17587339015, -0.117298861768, -14.0690415519, 0.0, 0.0, 0.0
11.3911070824, -0.207642442399, -0.141509903662, -14.1185928788, 0.0, 0.0, 0.0, -0.177023046692, -0.141334525625, -14.0548159825, 0.0, 0.0, 0.0
11.4412660599, -0.199401856468, -0.132138145267, -14.1118128795, 0.0, 0.0, 0.0, -0.169305811136, -0.141494993924, -14.0524760159, 0.0, 0.0, 0.0
11.4914469719, -0.198393103528, -0.13786348917, -14.1083023302, 0.0, 0.0, 0.0, -0.162925954294, -0.118286137173, -14.0681782485, 0.0, 0.0, 0.0
11.5416259766, -0.19736380842, -0.15367388221, -14.1083438198, 0.0, 0.0, 0.0, -0.162475283997, -0.126698116494, -14.0546625752, 0.0, 0.0, 0.0
11.5917761326, -0.201541536411, -0.157930196354, -14.1066067811, 0.0, 0.0, 0.0, -0.164962219215, -0.133971902957, -14.0649263823, 0.0, 0.0, 0.0
11.6419370174, -0.194664648055, -0.158647620101, -14.1041958676, 0.0, 0.0, 0.0, -0.167129262124, -0.122141983185, -14.0477820049, 0.0, 0.0, 0.0
11.6921069622, -0.196486566601, -0.151294973728, -14.1071006819, 0.0, 0.0, 0.0, -0.164229417724, -0.114481032642, -14.0300137578, 0.0, 0.0, 0.0
11.7422509193, -0.200486444423, -0.130225013964, -14.1115728378, 0.0, 0.0, 0.0, -0.164835564623, -0.104294964219, -14.0388999499, 0.0, 0.0, 0.0
11.7924010754, -0.201545092643, -0.154615235278, -14.0984715317, 0.0, 0.0, 0.0, -0.170101986437, -0.103549591929, -14.0410506087, 0.0, 0.0, 0.0
11.8425679207, -0.214224632342, -0.141738267286, -14.0937257815, 0.0, 0.0, 0.0, -0.153081471631, -0.111373659233, -14.0503907398, 0.0, 0.0, 0.0
11.8927769661, -0.207993077122, -0.154727913966, -14.1081442828, 0.0, 0.0, 0.0, -0.166514875035, -0.119595270656, -14.0436507944, 0.0, 0.0, 0.0
11.9429309368, -0.208479283148, -0.179563276722, -14.1048855237, 0.0, 0.0, 0.0, -0.162497111118, -0.13302377766, -14.0435583483, 0.0, 0.0, 0.0
11.9931180477, -0.205695888328, -0.167109048516, -14.1049057693, 0.0, 0.0, 0.0, -0.158808138828, -0.113593224184, -14.046816041, 0.0, 0.0, 0.0
12.0432910919, -0.202097195025, -0.152321954666, -14.0990680354, 0.0, 0.0, 0.0, -0.160517922244, -0.130112441345, -14.0324859019, 0.0, 0.0, 0.0
12.0934541225, -0.197845346272, -0.157476076355, -14.0959765381, 0.0, 0.0, 0.0, -0.165396754977, -0.137153066247, -14.0318159495, 0.0, 0.0, 0.0
12.1436200142, -0.206614584859, -0.162579290808, -14.092392613, 0.0, 0.0, 0.0, -0.158855567682, -0.108639972282, -14.0464334808, 0.0, 0.0, 0.0
12.193764925, -0.202333936822, -0.162465985463, -14.0875355476, 0.0, 0.0, 0.0, -0.169606919951, -0.130403497634, -14.0517621442, 0.0, 0.0, 0.0
12.243917942, -0.199136598333, -0.140322685237, -14.1001523108, 0.0, 0.0, 0.0, -0.175588555061, -0.132341084942, -14.0530481081, 0.0, 0.0, 0.0
12.2940781116, -0.194244928919, -0.140325958195, -14.1098801569, 0.0, 0.0, 0.0, -0.168025073726, -0.131697176793, -14.0598138459, 0.0, 0.0, 0.0
12.3442249298, -0.188252567006, -0.134505876292, -14.1106367196, 0.0, 0.0, 0.0, -0.173861046976, -0.147891982288, -14.0685293646, 0.0, 0.0, 0.0
12.3943619728, -0.187495568175, -0.146992051542, -14.1036970358, 0.0, 0.0, 0.0, -0.174889793739, -0.10767025139, -14.0487278245, 0.0, 0.0, 0.0
12.4444959164, -0.19289734841, -0.150049138007, -14.1095717031, 0.0, 0.0, 0.0, -0.168110607602, -0.110053229922, -14.0480577204, 0.0, 0.0, 0.0
12.4946689606, -0.189937128314, -0.136880276524, -14.1033097812, 0.0, 0.0, 0.0, -0.159605907016, -0.0954082322331, -14.0597695946, 0.0, 0.0, 0.0
12.5448601246, -0.193561987083, -0.140385901796, -14.0969053645, 0.0, 0.0, 0.0, -0.167468504961, -0.0949422739795, -14.0651675408, 0.0, 0.0, 0.0
12.5950660706, -0.202775633505, -0.134683550516, -14.0922187959, 0.0, 0.0, 0.0, -0.164205509837, -0.1154794573, -14.0700512665, 0.0, 0.0, 0.0
12.6452269554, -0.201538216234, -0.147919315017, -14.098050678, 0.0, 0.0, 0.0, -0.178941202138, -0.139340740826, -14.058375267, 0.0, 0.0, 0.0
12.6953659058, -0.208572716316, -0.143406224773, -14.1113791766, 0.0, 0.0, 0.0, -0.178949390382, -0.139061313055, -14.052286514, 0.0, 0.0, 0.0
12.7455189228, -0.200332438973, -0.158763621989, -14.1076464238, 0.0, 0.0, 0.0, -0.181336958116, -0.146014167924, -14.0516514289, 0.0, 0.0, 0.0
12.7956809998, -0.203929511387, -0.133065221475, -14.1109934135, 0.0, 0.0, 0.0, -0.183000054793, -0.127273423726, -14.0541588778, 0.0, 0.0, 0.0
12.8458340168, -0.206843833852, -0.143235826784, -14.0956364036, 0.0, 0.0, 0.0, -0.170344473439, -0.118721729476, -14.0564629509, 0.0, 0.0, 0.0
12.8960449696, -0.200661602511, -0.157146500622, -14.0982750262, 0.0, 0.0, 0.0, -0.167335956329, -0.124909600468, -14.0528879169, 0.0, 0.0, 0.0
12.9461960793, -0.192315086052, -0.163188750185, -14.1100227682, 0.0, 0.0, 0.0, -0.160803365701, -0.115889695442, -14.0536333286, 0.0, 0.0, 0.0
12.9963350296, -0.194369024427, -0.161382308359, -14.0999447785, 0.0, 0.0, 0.0, -0.164428925103, -0.119919957602, -14.0464230932, 0.0, 0.0, 0.0
13.0464999676, -0.185185384109, -0.16350335417, -14.102843022, 0.0, 0.0, 0.0, -0.166229107353, -0.123069520314, -14.0481177584, 0.0, 0.0, 0.0
13.0966639519, -0.18451757483, -0.159528651114, -14.1020508113, 0.0, 0.0, 0.0, -0.164936643913, -0.128107260289, -14.0527898539, 0.0, 0.0, 0.0
13.1468291283, -0.190338103617, -0.167461910278, -14.1007397033, 0.0, 0.0, 0.0, -0.165389116378, -0.149764978206, -14.0508048935, 0.0, 0.0, 0.0
13.1970031261, -0.198117215183, -0.167385327914, -14.0979700521, 0.0, 0.0, 0.0, -0.162183732939, -0.118797513287, -14.0509247585, 0.0, 0.0, 0.0
13.2471470833, -0.190897857452, -0.17248731258, -14.1041220383, 0.0, 0.0, 0.0, -0.162586286825, -0.138366423004, -14.052322629, 0.0, 0.0, 0.0
13.2972869873, -0.206738985541, -0.185072843212, -14.1122301877, 0.0, 0.0, 0.0, -0.155216078028, -0.151771074788, -14.0558999644, 0.0, 0.0, 0.0
13.3474891186, -0.198313454877, -0.177472483217, -14.1174824581, 0.0, 0.0, 0.0, -0.162436880856, -0.14636019123, -14.0543742228, 0.0, 0.0, 0.0
13.3976340294, -0.199976525015, -0.158484388836, -14.1030074885, 0.0, 0.0, 0.0, -0.163314783268, -0.122147881585, -14.0505736372, 0.0, 0.0, 0.0
13.4478559494, -0.201483193595, -0.144737264426, -14.1076745175, 0.0, 0.0, 0.0, -0.166277126684, -0.124868366344, -14.0626343194, 0.0, 0.0, 0.0
13.4980280399, -0.199179012458, -0.143815440441, -14.1094474407, 0.0, 0.0, 0.0, -0.163526778757, -0.115923786297, -14.0600982888, 0.0, 0.0, 0.0
13.5482370853, -0.199384539112, -0.152031352211, -14.1103856936, 0.0, 0.0, 0.0, -0.168241131389, -0.124839726111, -14.037657541, 0.0, 0.0, 0.0
13.5984270573, -0.203574662904, -0.149711471691, -14.1104804401, 0.0, 0.0, 0.0, -0.163795005442, -0.116611551579, -14.0499286417, 0.0, 0.0, 0.0
13.6485869884, -0.202404237831, -0.147692088099, -14.1004654458, 0.0, 0.0, 0.0, -0.172851456113, -0.148372017309, -14.0538177799, 0.0, 0.0, 0.0
13.6987149715, -0.196398777069, -0.141830424522, -14.0928648017, 0.0, 0.0, 0.0, -0.17477616755, -0.153058473189, -14.0509247794, 0.0, 0.0, 0.0
13.7488861084, -0.202850666271, -0.137936539515, -14.0968469181, 0.0, 0.0, 0.0, -0.173443808418, -0.13461177929, -14.0511717535, 0.0, 0.0, 0.0
13.7990550995, -0.195407502522, -0.143496606424, -14.0890566716, 0.0, 0.0, 0.0, -0.154393937626, -0.129981879101, -14.0438869538, 0.0, 0.0, 0.0
13.8492031097, -0.205988025995, -0.144663065385, -14.0866532816, 0.0, 0.0, 0.0, -0.168937672215, -0.125608233044, -14.039023749, 0.0, 0.0, 0.0
13.8993759155, -0.200485934026, -0.137194680498, -14.0868041502, 0.0, 0.0, 0.0, -0.179340909682, -0.146960565028, -14.0371082163, 0.0, 0.0, 0.0
13.949557066, -0.206172147414, -0.141491239996, -14.0976952347, 0.0, 0.0, 0.0, -0.179415370107, -0.131935990976, -14.0333246946, 0.0, 0.0, 0.0
13.9996891022, -0.203758187764, -0.12285049501, -14.1052017231, 0.0, 0.0, 0.0, -0.168194595612, -0.129618425422, -14.0576152311, 0.0, 0.0, 0.0
14.0498130322, -0.197142311625, -0.126945891767, -14.1058887975, 0.0, 0.0, 0.0, -0.168177506073, -0.124731425011, -14.0707574326, 0.0, 0.0, 0.0
14.0999839306, -0.189516387125, -0.127506574106, -14.0998409268, 0.0, 0.0, 0.0, -0.160142743993, -0.144859575783, -14.0655067062, 0.0, 0.0, 0.0
14.1501569748, -0.19138327106, -0.138876287575, -14.1077480101, 0.0, 0.0, 0.0, -0.167400756514, -0.130557964064, -14.0499522634, 0.0, 0.0, 0.0
14.2003359795, -0.199089315379, -0.139785751168, -14.1113624411, 0.0, 0.0, 0.0, -0.173066462393, -0.114397485588, -14.04681084, 0.0, 0.0, 0.0
14.2504930496, -0.198080514695, -0.14087995685, -14.0972429103, 0.0, 0.0, 0.0, -0.177658382425, -0.12867394322, -14.0518069937, 0.0, 0.0, 0.0
14.300620079, -0.194911114484, -0.123410348976, -14.1021827198, 0.0, 0.0, 0.0, -0.17618314267, -0.147595858715, -14.0521014786, 0.0, 0.0, 0.0
14.3508360386, -0.195010003901, -0.147441068463, -14.0962755568, 0.0, 0.0, 0.0, -0.177389151912, -0.144962552561, -14.0580660513, 0.0, 0.0, 0.0
14.4010250568, -0.197428975525, -0.157957154604, -14.1129026628, 0.0, 0.0, 0.0, -0.175242804565, -0.124309244746, -14.0607354817, 0.0, 0.0, 0.0
14.451182127, -0.202971899432, -0.162564245999, -14.1082239758, 0.0, 0.0, 0.0, -0.176405224462, -0.129059447617, -14.0532969918, 0.0, 0.0, 0.0
14.5013389587, -0.19381143397, -0.156460317465, -14.1062085961, 0.0, 0.0, 0.0, -0.16491768857, -0.114840688943, -14.041049395, 0.0, 0.0, 0.0
14.5514950752, -0.197713937021, -0.161050988329, -14.1112057946, 0.0, 0.0, 0.0, -0.161358653634, -0.130078445129, -14.039917533, 0.0, 0.0, 0.0
14.6016221046, -0.200492591497, -0.166384678499, -14.1100839036, 0.0, 0.0, 0.0, -0.169744690495, -0.148444950555, -14.043915392, 0.0, 0.0, 0.0
14.6517751217, -0.206462336032, -0.149748813302, -14.1050149263, 0.0, 0.0, 0.0, -0.168666208184, -0.136720810715, -14.0345574774, 0.0, 0.0, 0.0
14.7020070553, -0.206507678366, -0.143340046456, -14.1025188419, 0.0, 0.0, 0.0, -0.167906357225, -0.124301370357, -14.0419472813, 0.0, 0.0, 0.0
14.7521400452, -0.197013641818, -0.149637028868, -14.1045491438, 0.0, 0.0, 0.0, -0.180257087752, -0.124959004337, -14.0309212905, 0.0, 0.0, 0.0
14.8022799492, -0.195834139527, -0.154804362831, -14.1032553818, 0.0, 0.0, 0.0, -0.175307642797, -0.130607422401, -14.0423142586, 0.0, 0.0, 0.0
14.8524188995, -0.20386351007, -0.173261937014, -14.1128429885, 0.0, 0.0, 0.0, -0.17235510696, -0.132586295005, -14.0426144465, 0.0, 0.0, 0.0
14.902559042, -0.202491339832, -0.166444650575, -14.1061197606, 0.0, 0.0, 0.0, -0.171311511833, -0.132510040676, -14.0383699574, 0.0, 0.0, 0.0
14.9526879787, -0.204007972513, -0.181024009501, -14.1165159735, 0.0, 0.0, 0.0, -0.167943059792, -0.134076204805, -14.0356916997, 0.0, 0.0, 0.0
15.0028460026, -0.20795833, -0.167299982084, -14.1146441362, 0.0, 0.0, 0.0, -0.165669346504, -0.12348155932, -14.0394474173, 0.0, 0.0, 0.0
15.0530071259, -0.201577125861, -0.168703463388, -14.1088706232, 0.0, 0.0, 0.0, -0.164726024644, -0.137643856005, -14.03826919, 0.0, 0.0, 0.0
15.1031501293, -0.203842204457, -0.161840893827, -14.1018141554, 0.0, 0.0, 0.0, -0.163517180613, -0.126226550804, -14.042223229, 0.0, 0.0, 0.0
15.1533279419, -0.200813846413, -0.162119122084, -14.1118357277, 0.0, 0.0, 0.0, -0.157684667456, -0.137012362579, -14.054302311, 0.0, 0.0, 0.0
15.2034549713, -0.191013079538, -0.148499566858, -14.1010306817, 0.0, 0.0, 0.0, -0.166887981277, -0.136855873823, -14.0563662198, 0.0, 0.0, 0.0
15.2538020611, -0.193277264024, -0.133925266673, -14.1015917385, 0.0, 0.0, 0.0, -0.170164550458, -0.140282652759, -14.0535728187, 0.0, 0.0, 0.0
15.303951025, -0.200970310007, -0.122634950552, -14.093514814, 0.0, 0.0, 0.0, -0.169716619086, -0.116442115269, -14.0481362505, 0.0, 0.0, 0.0
15.3541030884, -0.20866437978, -0.127122103569, -14.0978798081, 0.0, 0.0, 0.0, -0.174785001074, -0.125926911579, -14.053541607, 0.0, 0.0, 0.0
15.4042470455, -0.19902374156, -0.140935105261, -14.10917887, 0.0, 0.0, 0.0, -0.168831992235, -0.134837094295, -14.0499239852, 0.0, 0.0, 0.0
15.4543879032, -0.195336116344, -0.140335237434, -14.1118752045, 0.0, 0.0, 0.0, -0.170582797299, -0.136562845869, -14.0525919429, 0.0, 0.0, 0.0
15.5045571327, -0.200321551071, -0.142729467352, -14.1119518466, 0.0, 0.0, 0.0, -0.171642564486, -0.142633763072, -14.0522214112, 0.0, 0.0, 0.0
15.5547409058, -0.195160440888, -0.127587192503, -14.1008817851, 0.0, 0.0, 0.0, -0.168453103492, -0.153461342976, -14.0604830091, 0.0, 0.0, 0.0
15.6049010754, -0.195336453415, -0.153148528978, -14.0990467509, 0.0, 0.0, 0.0, -0.163528533376, -0.14249683179, -14.0436677061, 0.0, 0.0, 0.0
15.6550900936, -0.203863248009, -0.166004600507, -14.1053546106, 0.0, 0.0, 0.0, -0.17274272586, -0.127897718094, -14.0440046466, 0.0, 0.0, 0.0
15.7052850723, -0.210159937404, -0.161992751003, -14.0997713815, 0.0, 0.0, 0.0, -0.170973799656, -0.159704595113, -14.0556317296, 0.0, 0.0, 0.0
15.7554829121, -0.197123989045, -0.153428331817, -14.1036759281, 0.0, 0.0, 0.0, -0.17282786977, -0.147573804387, -14.044443497, 0.0, 0.0, 0.0
15.8056640625, -0.199054142072, -0.153775255798, -14.0940438099, 0.0, 0.0, 0.0, -0.162641340326, -0.148350814054, -14.0483456517, 0.0, 0.0, 0.0
15.8558061123, -0.195682731035, -0.149938325665, -14.1016458695, 0.0, 0.0, 0.0, -0.164958258564, -0.124831314225, -14.0626779614, 0.0, 0.0, 0.0
15.9059560299, -0.192460973577, -0.17053084511, -14.1037351281, 0.0, 0.0, 0.0, -0.167833996595, -0.121156815448, -14.0555541721, 0.0, 0.0, 0.0
15.9561140537, -0.202086027357, -0.150533020526, -14.1064510561, 0.0, 0.0, 0.0, -0.164571602902, -0.12358062005, -14.050599285, 0.0, 0.0, 0.0
16.0062890053, -0.20503818978, -0.160185907515, -14.1025017286, 0.0, 0.0, 0.0, -0.171205467902, -0.121459566475, -14.0508701936, 0.0, 0.0, 0.0
16.0564749241, -0.200151674476, -0.160557377004, -14.1110788014, 0.0, 0.0, 0.0, -0.167313438712, -0.12168847503, -14.0567240581, 0.0, 0.0, 0.0
16.1066401005, -0.197506620896, -0.14117264534, -14.1073602497, 0.0, 0.0, 0.0, -0.176407712154, -0.109816758688, -14.0621119188, 0.0, 0.0, 0.0
16.1568551064, -0.197083854965, -0.146639148476, -14.1125894079, 0.0, 0.0, 0.0, -0.162866739298, -0.106245590075, -14.0473321213, 0.0, 0.0, 0.0
16.207034111, -0.200543591437, -0.166395797758, -14.1122356291, 0.0, 0.0, 0.0, -0.165476664706, -0.133696100707, -14.0443688105, 0.0, 0.0, 0.0
16.2572281361, -0.201979830114, -0.173049533922, -14.114641037, 0.0, 0.0, 0.0, -0.168141359597, -0.140527409665, -14.0485086483, 0.0, 0.0, 0.0
16.3073780537, -0.203224217676, -0.172702887119, -14.1158263657, 0.0, 0.0, 0.0, -0.161353137822, -0.145543017204, -14.0500471857, 0.0, 0.0, 0.0
16.3575680256, -0.188117287198, -0.15701926014, -14.1033480532, 0.0, 0.0, 0.0, -0.173268350584, -0.135800811525, -14.0508179995, 0.0, 0.0, 0.0
16.4077060223, -0.186277714292, -0.143076754166, -14.1029360968, 0.0, 0.0, 0.0, -0.169906532433, -0.130203243692, -14.0517638378, 0.0, 0.0, 0.0
16.4578590393, -0.191685698415, -0.136119056515, -14.1004177093, 0.0, 0.0, 0.0, -0.173790142578, -0.137607640923, -14.0575006596, 0.0, 0.0, 0.0
16.5080049038, -0.200619497937, -0.144667120386, -14.1075483694, 0.0, 0.0, 0.0, -0.175036156622, -0.136029517303, -14.0434099317, 0.0, 0.0, 0.0
16.5581610203, -0.198548482584, -0.117789054836, -14.1051481192, 0.0, 0.0, 0.0, -0.174827806935, -0.140406644437, -14.0461595102, 0.0, 0.0, 0.0
16.6083250046, -0.194272600154, -0.119226915926, -14.1111554429, 0.0, 0.0, 0.0, -0.172988802063, -0.134240882089, -14.0440843896, 0.0, 0.0, 0.0
16.6584749222, -0.205830467058, -0.133247684959, -14.0977515293, 0.0, 0.0, 0.0, -0.168087160768, -0.146215606048, -14.0363209797, 0.0, 0.0, 0.0
16.7086338997, -0.210098967249, -0.122924139879, -14.1043260954, 0.0, 0.0, 0.0, -0.17562122904, -0.145541848435, -14.0419959521, 0.0, 0.0, 0.0
16.7588210106, -0.212938149783, -0.140000029243, -14.1050713515, 0.0, 0.0, 0.0, -0.163682744868, -0.14228307325, -14.0451614367, 0.0, 0.0, 0.0
16.8089690208, -0.201187463425, -0.131586430408, -14.1024555666, 0.0, 0.0, 0.0, -0.171955692857, -0.135582409855, -14.044199352, 0.0, 0.0, 0.0
16.8591110706, -0.201076456618, -0.144044914723, -14.1045152575, 0.0, 0.0, 0.0, -0.176505389564, -0.151553703078, -14.0471980662, 0.0, 0.0, 0.0
16.9092769623, -0.202075879916, -0.142018231329, -14.0916507878, 0.0, 0.0, 0.0, -0.187265827366, -0.183673135176, -14.0544914473, 0.0, 0.0, 0.0
16.9594290257, -0.202708682797, -0.139581749277, -14.0894744842, 0.0, 0.0, 0.0, -0.170259969872, -0.165628282911, -14.0627738529, 0.0, 0.0, 0.0
17.0095751286, -0.20679119132, -0.170948320228, -14.0946334687, 0.0, 0.0, 0.0, -0.177282588422, -0.211022934701, -14.0575416751, 0.0, 0.0, 0.0
17.0597341061, -0.202847333009, -0.151617691653, -14.1043315773, 0.0, 0.0, 0.0, -0.177203964284, -0.178853427354, -14.0523302906, 0.0, 0.0, 0.0
17.109885931, -0.200749805074, -0.141356697272, -14.0964540008, 0.0, 0.0, 0.0, -0.173576409039, -0.152440324594, -14.0612023135, 0.0, 0.0, 0.0
17.1600649357, -0.198732341933, -0.154216212381, -14.1102252284, 0.0, 0.0, 0.0, -0.165578410588, -0.12620090851, -14.0473830658, 0.0, 0.0, 0.0
17.2102620602, -0.193284283253, -0.161859228552, -14.1092411705, 0.0, 0.0, 0.0, -0.167826038412, -0.150163476837, -14.0383543685, 0.0, 0.0, 0.0
17.2604570389, -0.191891735862, -0.155733853359, -14.1055950908, 0.0, 0.0, 0.0, -0.173606827512, -0.138570812057, -14.0478268146, 0.0, 0.0, 0.0
17.3106489182, -0.190131788626, -0.153341919118, -14.1088831646, 0.0, 0.0, 0.0, -0.164570866614, -0.143427469118, -14.060551744, 0.0, 0.0, 0.0
17.3608169556, -0.195794827756, -0.167437946056, -14.1058191005, 0.0, 0.0, 0.0, -0.175670397252, -0.123630766994, -14.0767802676, 0.0, 0.0, 0.0
17.4109640121, -0.193712873895, -0.159661464782, -14.0914577855, 0.0, 0.0, 0.0, -0.186107154688, -0.12674397354, -14.0598021599, 0.0, 0.0, 0.0
17.4611399174, -0.202780208914, -0.150914965153, -14.0980459992, 0.0, 0.0, 0.0, -0.175785418336, -0.134650537552, -14.0524810729, 0.0, 0.0, 0.0
17.511341095, -0.199949020004, -0.147397189402, -14.0889969638, 0.0, 0.0, 0.0, -0.165373407108, -0.131270228728, -14.047281043, 0.0, 0.0, 0.0
17.5615439415, -0.19265512127, -0.129402472935, -14.0856328156, 0.0, 0.0, 0.0, -0.164828830639, -0.143171504807, -14.0390738703, 0.0, 0.0, 0.0
17.6117010117, -0.195222845534, -0.131386974388, -14.1016729759, 0.0, 0.0, 0.0, -0.168954834872, -0.139690466887, -14.047409652, 0.0, 0.0, 0.0
17.6618480682, -0.197630842288, -0.135945457287, -14.1015382574, 0.0, 0.0, 0.0, -0.170600356496, -0.115265843392, -14.0340273885, 0.0, 0.0, 0.0
17.7119951248, -0.201560337458, -0.132949982069, -14.0977128823, 0.0, 0.0, 0.0, -0.171274367823, -0.127586955816, -14.0402063995, 0.0, 0.0, 0.0
17.7621490955, -0.205046308979, -0.144774401357, -14.1013815452, 0.0, 0.0, 0.0, -0.166154049659, -0.135699135607, -14.0588288363, 0.0, 0.0, 0.0
17.8123040199, -0.203800026949, -0.142249758926, -14.1047302939, 0.0, 0.0, 0.0, -0.170934885567, -0.110497438989, -14.0673219251, 0.0, 0.0, 0.0
17.8624539375, -0.201283072053, -0.147155376246, -14.0988460938, 0.0, 0.0, 0.0, -0.162111213586, -0.131607441734, -14.0563374477, 0.0, 0.0, 0.0
17.9126191139, -0.200230989033, -0.149151892421, -14.1042486017, 0.0, 0.0, 0.0, -0.164471964937, -0.140846591811, -14.0603090827, 0.0, 0.0, 0.0
17.9627759457, -0.197072822224, -0.146822327903, -14.1070948779, 0.0, 0.0, 0.0, -0.173267406821, -0.129332282189, -14.066839554, 0.0, 0.0, 0.0
18.0129230022, -0.201051184033, -0.153198697145, -14.1050924446, 0.0, 0.0, 0.0, -0.173794907807, -0.137440659769, -14.0454328808, 0.0, 0.0, 0.0
18.0631120205, -0.199517741213, -0.147922500852, -14.1114332322, 0.0, 0.0, 0.0, -0.168554905095, -0.155493662882, -14.0513567022, 0.0, 0.0, 0.0
18.113270998, -0.203991205878, -0.15502556648, -14.1041725098, 0.0, 0.0, 0.0, -0.171652311486, -0.147282188513, -14.0468045484, 0.0, 0.0, 0.0
18.1634299755, -0.200032333696, -0.150866880636, -14.1038769811, 0.0, 0.0, 0.0, -0.161306724418, -0.139821640099, -14.0500021493, 0.0, 0.0, 0.0
18.2135910988, -0.19930656763, -0.149831741218, -14.1020454958, 0.0, 0.0, 0.0, -0.164544317182, -0.150248900425, -14.0370950432, 0.0, 0.0, 0.0
18.2637441158, -0.195247173697, -0.148584989411, -14.101648576, 0.0, 0.0, 0.0, -0.166261989901, -0.144137035436, -14.0396398581, 0.0, 0.0, 0.0
18.3138771057, -0.186317989941, -0.151294594852, -14.1061177842, 0.0, 0.0, 0.0, -0.173597468901, -0.14606109962, -14.0439038513, 0.0, 0.0, 0.0
18.3640160561, -0.191541781163, -0.146467508419, -14.1092449922, 0.0, 0.0, 0.0, -0.168623081778, -0.138544914473, -14.0455205899, 0.0, 0.0, 0.0
18.4141609669, -0.200232572885, -0.146708125595, -14.107869219, 0.0, 0.0, 0.0, -0.158277997106, -0.125295637357, -14.0468907913, 0.0, 0.0, 0.0
18.4643211365, -0.195128963631, -0.14402061365, -14.1052080618, 0.0, 0.0, 0.0, -0.163946310487, -0.136190324583, -14.0444192623, 0.0, 0.0, 0.0
18.5144610405, -0.187724328082, -0.147404978771, -14.1021713647, 0.0, 0.0, 0.0, -0.158366597568, -0.145257932229, -14.040837403, 0.0, 0.0, 0.0
18.5646169186, -0.193184971291, -0.134397562066, -14.097437479, 0.0, 0.0, 0.0, -0.162563686526, -0.130887018417, -14.0449856439, 0.0, 0.0, 0.0
18.6148169041, -0.208756630023, -0.147894965664, -14.1009359653, 0.0, 0.0, 0.0, -0.154656642424, -0.127888001588, -14.0494547479, 0.0, 0.0, 0.0
18.6649999619, -0.203194010621, -0.129845485083, -14.09485363, 0.0, 0.0, 0.0, -0.163648433958, -0.128936453197, -14.0512164289, 0.0, 0.0, 0.0
18.7152459621, -0.198527233497, -0.131004387842, -14.1017985587, 0.0, 0.0, 0.0, -0.164978696774, -0.131350855498, -14.0548348436, 0.0, 0.0, 0.0
18.7653980255, -0.20165188115, -0.129276852086, -14.1056652376, 0.0, 0.0, 0.0, -0.16352163471, -0.141776715241, -14.0491709904, 0.0, 0.0, 0.0
18.8155910969, -0.191246501303, -0.127336974664, -14.1119634584, 0.0, 0.0, 0.0, -0.167876479939, -0.139787037659, -14.0458916111, 0.0, 0.0, 0.0
18.8658621311, -0.188296873862, -0.142990178767, -14.1163096378, 0.0, 0.0, 0.0, -0.161259261189, -0.136960976231, -14.0490226233, 0.0, 0.0, 0.0
18.9160740376, -0.194826697274, -0.120699993608, -14.1058891728, 0.0, 0.0, 0.0, -0.164935428496, -0.117127615263, -14.0391280502, 0.0, 0.0, 0.0
18.9662020206, -0.20024456147, -0.134516705894, -14.1019494653, 0.0, 0.0, 0.0, -0.161078982076, -0.120940161667, -14.0429160365, 0.0, 0.0, 0.0
19.0163531303, -0.205879007649, -0.125743402733, -14.0955489848, 0.0, 0.0, 0.0, -0.158865535903, -0.12165689093, -14.040830805, 0.0, 0.0, 0.0
19.0665240288, -0.211200676219, -0.107059869038, -14.0964941214, 0.0, 0.0, 0.0, -0.169974496997, -0.129850549221, -14.0458523517, 0.0, 0.0, 0.0
19.1167490482, -0.207575902898, -0.126867721495, -14.1025777463, 0.0, 0.0, 0.0, -0.170198134061, -0.135092804515, -14.0454302122, 0.0, 0.0, 0.0
19.1668839455, -0.201439075464, -0.116710733406, -14.0998630215, 0.0, 0.0, 0.0, -0.15800480956, -0.128496313338, -14.0499639756, 0.0, 0.0, 0.0
19.2170529366, -0.205959477987, -0.126359526776, -14.0968545456, 0.0, 0.0, 0.0, -0.151890513755, -0.129279666458, -14.0365051973, 0.0, 0.0, 0.0
19.2671840191, -0.204421018578, -0.136673977371, -14.102092618, 0.0, 0.0, 0.0, -0.15861149395, -0.141989326358, -14.0240384069, 0.0, 0.0, 0.0
19.3173229694, -0.203467815064, -0.149054200492, -14.1056391704, 0.0, 0.0, 0.0, -0.159332869313, -0.131252277347, -14.0399589088, 0.0, 0.0, 0.0
19.3674600124, -0.199706222654, -0.163829755214, -14.1072536441, 0.0, 0.0, 0.0, -0.161547455734, -0.127735410901, -14.0460065401, 0.0, 0.0, 0.0
19.4177920818, -0.201548789936, -0.161354742475, -14.1219743726, 0.0, 0.0, 0.0, -0.167766294734, -0.142161993038, -14.0459394092, 0.0, 0.0, 0.0
19.4680259228, -0.203306221403, -0.178403148599, -14.1197360549, 0.0, 0.0, 0.0, -0.1691790805, -0.142840375406, -14.0449606718, 0.0, 0.0, 0.0
19.5181670189, -0.195097669989, -0.173616725213, -14.1223886989, 0.0, 0.0, 0.0, -0.169771935429, -0.138236324868, -14.0451779062, 0.0, 0.0, 0.0
19.5682990551, -0.200689963927, -0.156140455016, -14.1122082913, 0.0, 0.0, 0.0, -0.178796330301, -0.128954344149, -14.0504199103, 0.0, 0.0, 0.0
19.6184279919, -0.195159313185, -0.143122271178, -14.1068351141, 0.0, 0.0, 0.0, -0.177538889099, -0.123625048834, -14.0500196146, 0.0, 0.0, 0.0
19.6685841084, -0.194539274295, -0.15533606206, -14.1074790698, 0.0, 0.0, 0.0, -0.169807087885, -0.120826566034, -14.052986209, 0.0, 0.0, 0.0
19.7188100815, -0.199632318266, -0.158425320195, -14.1040168361, 0.0, 0.0, 0.0, -0.172301946149, -0.130268453536, -14.053917421, 0.0, 0.0, 0.0
19.7689929008, -0.204420395005, -0.131319733574, -14.1018145518, 0.0, 0.0, 0.0, -0.165596620369, -0.138911688252, -14.0466349613, 0.0, 0.0, 0.0
19.8191549778, -0.211650954961, -0.144759310187, -14.1052056101, 0.0, 0.0, 0.0, -0.17287620786, -0.132914774537, -14.0500048882, 0.0, 0.0, 0.0
19.8692851067, -0.20873713079, -0.142511800917, -14.0982119363, 0.0, 0.0, 0.0, -0.170386673403, -0.158233581227, -14.0467196484, 0.0, 0.0, 0.0
19.9194960594, -0.218277565344, -0.162635513463, -14.0922670014, 0.0, 0.0, 0.0, -0.16989174551, -0.158161166788, -14.0481396079, 0.0, 0.0, 0.0
19.9696679115, -0.20800009859, -0.157096368738, -14.0972234565, 0.0, 0.0, 0.0, -0.158776878446, -0.140118282756, -14.0300766636, 0.0, 0.0, 0.0
20.0198400021, -0.203739735192, -0.172500710248, -14.1013085133, 0.0, 0.0, 0.0, -0.159109492757, -0.141828041523, -14.0381199781, 0.0, 0.0, 0.0
20.0700280666, -0.203683470899, -0.163020308799, -14.1057142939, 0.0, 0.0, 0.0, -0.164300893105, -0.127643958979, -14.0500672934, 0.0, 0.0, 0.0
20.1201910973, -0.206686111975, -0.143229490253, -14.1026176444, 0.0, 0.0, 0.0, -0.159772975, -0.107203548205, -14.0411522391, 0.0, 0.0, 0.0
20.1703419685, -0.197439174557, -0.136416891999, -14.1031840946, 0.0, 0.0, 0.0, -0.155311701576, -0.120739554727, -14.0467713139, 0.0, 0.0, 0.0
20.2204930782, -0.204117586938, -0.144882568519, -14.111846501, 0.0, 0.0, 0.0, -0.175072943283, -0.129388463428, -14.0504481348, 0.0, 0.0, 0.0
20.270622015, -0.200940326215, -0.130231096622, -14.1129139713, 0.0, 0.0, 0.0, -0.172068140935, -0.129563836495, -14.0479319811, 0.0, 0.0, 0.0
20.3207609653, -0.202369032298, -0.133823008105, -14.1088051375, 0.0, 0.0, 0.0, -0.166002842964, -0.126076966131, -14.0504001554, 0.0, 0.0, 0.0
20.370937109, -0.203640539044, -0.143120531984, -14.1037908633, 0.0, 0.0, 0.0, -0.17261468847, -0.14944955219, -14.038814876, 0.0, 0.0, 0.0
20.4210820198, -0.201792579739, -0.131709257669, -14.1035184397, 0.0, 0.0, 0.0, -0.166678276996, -0.16300709851, -14.0517203097, 0.0, 0.0, 0.0
20.4712669849, -0.207373148965, -0.153945118278, -14.1031409956, 0.0, 0.0, 0.0, -0.167339268766, -0.159653367762, -14.0550719477, 0.0, 0.0, 0.0
20.5214250088, -0.19975347876, -0.147211864806, -14.1028113583, 0.0, 0.0, 0.0, -0.163670899451, -0.125461387967, -14.0469759905, 0.0, 0.0, 0.0
20.5715799332, -0.189143301949, -0.184943231113, -14.104247699, 0.0, 0.0, 0.0, -0.169694586084, -0.131803332649, -14.0486079269, 0.0, 0.0, 0.0
20.6217799187, -0.196365564091, -0.177405506597, -14.1030391477, 0.0, 0.0, 0.0, -0.170184178937, -0.123024282887, -14.0385912472, 0.0, 0.0, 0.0
20.6719419956, -0.19698375335, -0.161241947838, -14.1032188293, 0.0, 0.0, 0.0, -0.167787737503, -0.134740986428, -14.0477619558, 0.0, 0.0, 0.0
20.722080946, -0.19530580828, -0.143031470319, -14.110771838, 0.0, 0.0, 0.0, -0.162231060136, -0.139502704332, -14.0403300137, 0.0, 0.0, 0.0
20.7722239494, -0.201126772214, -0.157805098739, -14.1153524181, 0.0, 0.0, 0.0, -0.159882222276, -0.152156649095, -14.0494186534, 0.0, 0.0, 0.0
20.8224050999, -0.210101647028, -0.152496547875, -14.1075911833, 0.0, 0.0, 0.0, -0.155910258163, -0.134972851121, -14.0559406017, 0.0, 0.0, 0.0
20.8725559711, -0.202762930706, -0.174854754891, -14.1119643341, 0.0, 0.0, 0.0, -0.16348608766, -0.128737151118, -14.0643358285, 0.0, 0.0, 0.0
20.9227490425, -0.202825063424, -0.170289488983, -14.1007740555, 0.0, 0.0, 0.0, -0.157134549627, -0.137497455016, -14.056750908, 0.0, 0.0, 0.0
20.9728910923, -0.202562624184, -0.17866468518, -14.0926904682, 0.0, 0.0, 0.0, -0.154643610877, -0.129134426962, -14.048672244, 0.0, 0.0, 0.0
21.0230491161, -0.202440387245, -0.160849956373, -14.1061922338, 0.0, 0.0, 0.0, -0.167742507787, -0.126700519166, -14.0491206979, 0.0, 0.0, 0.0
21.0732021332, -0.201048925397, -0.142755609058, -14.099253718, 0.0, 0.0, 0.0, -0.167542394031, -0.132602850689, -14.048360233, 0.0, 0.0, 0.0
21.123415947, -0.201335428727, -0.128223804501, -14.1077756666, 0.0, 0.0, 0.0, -0.174105599055, -0.160873026626, -14.0458780826, 0.0, 0.0, 0.0
21.1735780239, -0.204790567717, -0.125415653081, -14.1042188553, 0.0, 0.0, 0.0, -0.174929499385, -0.15083089559, -14.0531601674, 0.0, 0.0, 0.0
21.2237501144, -0.206846240132, -0.126809584953, -14.0970258149, 0.0, 0.0, 0.0, -0.170760187832, -0.157712620654, -14.0555114901, 0.0, 0.0, 0.0
21.273911953, -0.201831683752, -0.131966138679, -14.1020737447, 0.0, 0.0, 0.0, -0.169315674442, -0.11973085655, -14.0459119884, 0.0, 0.0, 0.0
21.32406497, -0.200195524058, -0.150812862079, -14.088413035, 0.0, 0.0, 0.0, -0.166954154944, -0.113891224717, -14.0533815349, 0.0, 0.0, 0.0
21.3742260933, -0.187492976047, -0.146268748518, -14.1061585377, 0.0, 0.0, 0.0, -0.169870165534, -0.13006824981, -14.0591467715, 0.0, 0.0, 0.0
21.4244689941, -0.189293105087, -0.134995197797, -14.1101436719, 0.0, 0.0, 0.0, -0.171901102245, -0.112624600944, -14.0516305587, 0.0, 0.0, 0.0
21.4746301174, -0.194437946417, -0.156107502546, -14.107773125, 0.0, 0.0, 0.0, -0.177599287082, -0.125707210769, -14.0387754425, 0.0, 0.0, 0.0
21.5247879028, -0.18926758915, -0.136910698306, -14.1070618215, 0.0, 0.0, 0.0, -0.173700134485, -0.111415008772, -14.0489687881, 0.0, 0.0, 0.0
21.5749499798, -0.1962240794, -0.149740338297, -14.1114905751, 0.0, 0.0, 0.0, -0.178532630563, -0.125575812892, -14.0568463066, 0.0, 0.0, 0.0
21.6251039505, -0.191686325375, -0.140322577613, -14.1074518937, 0.0, 0.0, 0.0, -0.173996996648, -0.117318426205, -14.0702067814, 0.0, 0.0, 0.0
21.6752700806, -0.199405390205, -0.118315741542, -14.1081396108, 0.0, 0.0, 0.0, -0.168875566218, -0.165496151732, -14.0485017448, 0.0, 0.0, 0.0
21.7254450321, -0.198938070309, -0.144223067851, -14.1128836945, 0.0, 0.0, 0.0, -0.171372600749, -0.134660273046, -14.0361515012, 0.0, 0.0, 0.0
21.7756841183, -0.195281355045, -0.138234160198, -14.1069414222, 0.0, 0.0, 0.0, -0.170678812317, -0.129352512926, -14.0399071498, 0.0, 0.0, 0.0
21.8258929253, -0.197306155669, -0.139498996294, -14.1083577592, 0.0, 0.0, 0.0, -0.168487786033, -0.129868294339, -14.0313181817, 0.0, 0.0, 0.0
21.8760421276, -0.200658500277, -0.148959345924, -14.120577704, 0.0, 0.0, 0.0, -0.167812415203, -0.111635478663, -14.0359344378, 0.0, 0.0, 0.0
21.9261829853, -0.205120978768, -0.142780087917, -14.1097483571, 0.0, 0.0, 0.0, -0.174655490767, -0.127250884574, -14.042101597, 0.0, 0.0, 0.0
21.9763281345, -0.198086521838, -0.155496412075, -14.1085706783, 0.0, 0.0, 0.0, -0.178232440778, -0.144361518005, -14.0555522776, 0.0, 0.0, 0.0
22.0264790058, -0.195594143136, -0.14116072553, -14.1077699339, 0.0, 0.0, 0.0, -0.16645379626, -0.11768507075, -14.0552389263, 0.0, 0.0, 0.0
22.076654911, -0.192088649072, -0.157947500015, -14.1041917675, 0.0, 0.0, 0.0, -0.160903349461, -0.12880968337, -14.0437368251, 0.0, 0.0, 0.0
22.1268980503, -0.192637504227, -0.167495878263, -14.1119272572, 0.0, 0.0, 0.0, -0.174931729422, -0.140536576899, -14.0471473617, 0.0, 0.0, 0.0
22.1793949604, -0.192828919191, -0.164563761606, -14.1069606526, 0.0, 0.0, 0.0, -0.172821424583, -0.146863188834, -14.0459650824, 0.0, 0.0, 0.0
22.2295930386, -0.192813212442, -0.167182220925, -14.0983062783, 0.0, 0.0, 0.0, -0.173290558946, -0.146246624898, -14.0318850201, 0.0, 0.0, 0.0
22.2797250748, -0.206666761725, -0.166073527726, -14.0919320692, 0.0, 0.0, 0.0, -0.163130843311, -0.138587793737, -14.0456552862, 0.0, 0.0, 0.0
22.3299040794, -0.206490562138, -0.170955167492, -14.1041867273, 0.0, 0.0, 0.0, -0.163150603312, -0.142103251731, -14.0509085751, 0.0, 0.0, 0.0
22.3801040649, -0.202953305355, -0.147203658873, -14.1182863144, 0.0, 0.0, 0.0, -0.175073108892, -0.150064234863, -14.0492393934, 0.0, 0.0, 0.0
22.430380106, -0.202332623133, -0.149906596865, -14.1107958515, 0.0, 0.0, 0.0, -0.168797621392, -0.118527295958, -14.0553163855, 0.0, 0.0, 0.0
22.4805879593, -0.202995143198, -0.151081177001, -14.106988666, 0.0, 0.0, 0.0, -0.170901960353, -0.153159856886, -14.0511302714, 0.0, 0.0, 0.0
22.530766964, -0.206823564362, -0.14105354451, -14.109923136, 0.0, 0.0, 0.0, -0.180136745121, -0.14601099742, -14.0609863159, 0.0, 0.0, 0.0
22.5810260773, -0.199814549463, -0.135010303128, -14.1106918131, 0.0, 0.0, 0.0, -0.179243430784, -0.137344080867, -14.0618798582, 0.0, 0.0, 0.0
22.6312470436, -0.200265050687, -0.152461780651, -14.1067994013, 0.0, 0.0, 0.0, -0.177071033631, -0.155343958219, -14.0610871156, 0.0, 0.0, 0.0
22.6814000607, -0.193794001769, -0.152815268198, -14.1079297005, 0.0, 0.0, 0.0, -0.176699550017, -0.197135644258, -14.0515136302, 0.0, 0.0, 0.0
22.731539011, -0.198364358505, -0.156079407139, -14.1111193235, 0.0, 0.0, 0.0, -0.178088419232, -0.163758342713, -14.0447777247, 0.0, 0.0, 0.0
22.781678915, -0.198876411272, -0.149458539428, -14.1130141319, 0.0, 0.0, 0.0, -0.184952083841, -0.157526289368, -14.0513562207, 0.0, 0.0, 0.0
22.8318800926, -0.201386174723, -0.143112668874, -14.1104733969, 0.0, 0.0, 0.0, -0.189027701672, -0.135047805341, -14.0543432692, 0.0, 0.0, 0.0
22.8820300102, -0.192312277628, -0.133634981131, -14.0910930556, 0.0, 0.0, 0.0, -0.182481663432, -0.116421571745, -14.0620071933, 0.0, 0.0, 0.0
22.932297945, -0.196858646562, -0.138375888211, -14.1045554368, 0.0, 0.0, 0.0, -0.175718517541, -0.101201240767, -14.0644682026, 0.0, 0.0, 0.0
22.9824540615, -0.19814881184, -0.148818930647, -14.1026330848, 0.0, 0.0, 0.0, -0.175307875502, -0.096838797738, -14.0637191951, 0.0, 0.0, 0.0
23.0326159, -0.202474821577, -0.15034944024, -14.1048396308, 0.0, 0.0, 0.0, -0.171174989116, -0.113934951908, -14.0483067902, 0.0, 0.0, 0.0
23.0827739239, -0.20316038988, -0.152465015509, -14.1099697082, 0.0, 0.0, 0.0, -0.172840554754, -0.136610609269, -14.059241207, 0.0, 0.0, 0.0
23.1329770088, -0.200221683909, -0.158365961153, -14.1092525953, 0.0, 0.0, 0.0, -0.171272762586, -0.149136911188, -14.0452188505, 0.0, 0.0, 0.0
23.1831300259, -0.200028270758, -0.152308550825, -14.1146680017, 0.0, 0.0, 0.0, -0.170736852289, -0.156794797798, -14.0449371218, 0.0, 0.0, 0.0
23.2332730293, -0.200097007647, -0.145805272583, -14.1173801604, 0.0, 0.0, 0.0, -0.175684035058, -0.147315325991, -14.026125929, 0.0, 0.0, 0.0
23.2834489346, -0.195395832447, -0.159373259071, -14.1133195518, 0.0, 0.0, 0.0, -0.176457727846, -0.171655233897, -14.0367398743, 0.0, 0.0, 0.0
23.3335940838, -0.206294985312, -0.17017494409, -14.1153804246, 0.0, 0.0, 0.0, -0.181446810629, -0.162755034644, -14.0472209669, 0.0, 0.0, 0.0
23.3838090897, -0.205235853409, -0.174741395919, -14.1184362351, 0.0, 0.0, 0.0, -0.182636063345, -0.144541969147, -14.0551052773, 0.0, 0.0, 0.0
23.433975935, -0.199165235304, -0.137953654711, -14.1100756903, 0.0, 0.0, 0.0, -0.171626925901, -0.129131493001, -14.0659207349, 0.0, 0.0, 0.0
23.484142065, -0.201484377582, -0.144724686697, -14.1020015607, 0.0, 0.0, 0.0, -0.166872393633, -0.126375345772, -14.0615927665, 0.0, 0.0, 0.0
23.5343379974, -0.190094500494, -0.141496475777, -14.1100361182, 0.0, 0.0, 0.0, -0.159171423929, -0.121264981069, -14.0485083182, 0.0, 0.0, 0.0
23.58446908, -0.196836748012, -0.149288875456, -14.1115444836, 0.0, 0.0, 0.0, -0.164312174723, -0.132864835192, -14.0291099118, 0.0, 0.0, 0.0
23.6346199512, -0.200178832455, -0.142094128535, -14.104897813, 0.0, 0.0, 0.0, -0.165780862952, -0.134665058427, -14.0428827256, 0.0, 0.0, 0.0
23.6847660542, -0.209078157952, -0.147341381186, -14.1056909706, 0.0, 0.0, 0.0, -0.159854313851, -0.156103364546, -14.0376331864, 0.0, 0.0, 0.0
23.7349209785, -0.204631598654, -0.145728573975, -14.1017233769, 0.0, 0.0, 0.0, -0.157012231206, -0.149307828927, -14.0435181871, 0.0, 0.0, 0.0
23.7850790024, -0.199990731285, -0.135751122862, -14.1089362527, 0.0, 0.0, 0.0, -0.157800309866, -0.158871404347, -14.0473968003, 0.0, 0.0, 0.0
23.8352179527, -0.195686373665, -0.137036609304, -14.1039120312, 0.0, 0.0, 0.0, -0.166963749217, -0.146442178179, -14.0559123009, 0.0, 0.0, 0.0
23.8853640556, -0.194804260036, -0.141078219307, -14.1107481541, 0.0, 0.0, 0.0, -0.161800377981, -0.202393735833, -14.0371261237, 0.0, 0.0, 0.0
23.9355211258, -0.197984756933, -0.15864873196, -14.0989969529, 0.0, 0.0, 0.0, -0.160736303024, -0.164999725811, -14.0546968169, 0.0, 0.0, 0.0
23.9857120514, -0.199675995806, -0.142692053057, -14.1075642221, 0.0, 0.0, 0.0, -0.169507767125, -0.152950724514, -14.0647286044, 0.0, 0.0, 0.0
24.0358669758, -0.202168204662, -0.152935162249, -14.099904495, 0.0, 0.0, 0.0, -0.171759277138, -0.157938752965, -14.0601456728, 0.0, 0.0, 0.0
24.0860359669, -0.201226022952, -0.148695439321, -14.0979500676, 0.0, 0.0, 0.0, -0.175847195518, -0.131347971952, -14.0577576457, 0.0, 0.0, 0.0
24.1362390518, -0.198969287704, -0.150228844345, -14.0953492284, 0.0, 0.0, 0.0, -0.172483765356, -0.124382914412, -14.0524849129, 0.0, 0.0, 0.0
24.1863870621, -0.196998545759, -0.164114368564, -14.088548383, 0.0, 0.0, 0.0, -0.174063196808, -0.161375362532, -14.0490116349, 0.0, 0.0, 0.0
24.2365510464, -0.200031950666, -0.164627698925, -14.1075890553, 0.0, 0.0, 0.0, -0.177200212557, -0.138285374884, -14.0515239314, 0.0, 0.0, 0.0
24.2867510319, -0.196484651465, -0.140384384546, -14.1076477365, 0.0, 0.0, 0.0, -0.166009515272, -0.127473527873, -14.0478295414, 0.0, 0.0, 0.0
24.3369009495, -0.19849699679, -0.145543820797, -14.1091564812, 0.0, 0.0, 0.0, -0.165690833342, -0.124419676804, -14.0463673584, 0.0, 0.0, 0.0
24.3870940208, -0.20364855897, -0.156752058043, -14.1123317609, 0.0, 0.0, 0.0, -0.171472269822, -0.100915338947, -14.0525066494, 0.0, 0.0, 0.0
24.4372909069, -0.195020274611, -0.172932920221, -14.1057506338, 0.0, 0.0, 0.0, -0.174228797652, -0.104477596223, -14.0334979764, 0.0, 0.0, 0.0
24.487473011, -0.196590817339, -0.160907719705, -14.1100735705, 0.0, 0.0, 0.0, -0.169575801638, -0.114223674601, -14.039808933, 0.0, 0.0, 0.0
24.537610054, -0.196056092621, -0.147080118319, -14.095554443, 0.0, 0.0, 0.0, -0.16409007876, -0.108667670443, -14.0406179794, 0.0, 0.0, 0.0
24.5877420902, -0.198304515643, -0.141870299683, -14.0942763004, 0.0, 0.0, 0.0, -0.167346889891, -0.12560316798, -14.0359682455, 0.0, 0.0, 0.0
24.6379010677, -0.197902421616, -0.118135058354, -14.1012140726, 0.0, 0.0, 0.0, -0.162533149226, -0.130614638409, -14.0505403064, 0.0, 0.0, 0.0
24.6880559921, -0.202117510398, -0.138489816651, -14.099015724, 0.0, 0.0, 0.0, -0.166125700495, -0.128987943735, -14.0785572116, 0.0, 0.0, 0.0
24.7382149696, -0.204983815165, -0.13018368715, -14.1020454257, 0.0, 0.0, 0.0, -0.162463777398, -0.126225090817, -14.0709839972, 0.0, 0.0, 0.0
24.7883479595, -0.200868870443, -0.126671564972, -14.1115292805, 0.0, 0.0, 0.0, -0.176050973878, -0.127892380524, -14.05589795, 0.0, 0.0, 0.0
24.8384850025, -0.196143851855, -0.139991847628, -14.1137682048, 0.0, 0.0, 0.0, -0.166253974544, -0.134028536148, -14.0493371538, 0.0, 0.0, 0.0
24.8886470795, -0.195626874718, -0.14126080135, -14.1123063861, 0.0, 0.0, 0.0, -0.167737744807, -0.158692892641, -14.0336474345, 0.0, 0.0, 0.0
24.9394850731, -0.197763790944, -0.142658373503, -14.1134709045, 0.0, 0.0, 0.0, -0.163085939179, -0.17638971188, -14.0318689688, 0.0, 0.0, 0.0
24.9896390438, -0.205213582891, -0.13183598187, -14.1172211694, 0.0, 0.0, 0.0, -0.1735305216, -0.180134755198, -14.0587240404, 0.0, 0.0, 0.0
25.0398049355, -0.195991607049, -0.12661845439, -14.110974704, 0.0, 0.0, 0.0, -0.16972900225, -0.143748250837, -14.0617183933, 0.0, 0.0, 0.0
25.0900161266, -0.203841080241, -0.146226083983, -14.1096866729, 0.0, 0.0, 0.0, -0.169231363509, -0.15325841923, -14.0624196244, 0.0, 0.0, 0.0
25.1401879787, -0.196891398621, -0.161284370332, -14.1004206425, 0.0, 0.0, 0.0, -0.170152345945, -0.147668438737, -14.0619529711, 0.0, 0.0, 0.0
25.1903560162, -0.202650134327, -0.157322518114, -14.0941239602, 0.0, 0.0, 0.0, -0.173259484255, -0.122961686581, -14.0490833916, 0.0, 0.0, 0.0
25.2405290604, -0.203959208493, -0.144952289375, -14.0932880076, 0.0, 0.0, 0.0, -0.169413678162, -0.123271983645, -14.05207184, 0.0, 0.0, 0.0
25.290692091, -0.201880840845, -0.162978969107, -14.1011782574, 0.0, 0.0, 0.0, -0.165577925757, -0.118686584768, -14.0577721076, 0.0, 0.0, 0.0
25.3408339024, -0.199873647096, -0.146109513363, -14.0933097888, 0.0, 0.0, 0.0, -0.171832249162, -0.140798780707, -14.0701326911, 0.0, 0.0, 0.0
25.391149044, -0.202709819021, -0.153901294232, -14.0881879154, 0.0, 0.0, 0.0, -0.169495287438, -0.13342909208, -14.0566931626, 0.0, 0.0, 0.0
25.4413199425, -0.203749809795, -0.167970955583, -14.0872574986, 0.0, 0.0, 0.0, -0.16645147677, -0.126963132172, -14.0527026347, 0.0, 0.0, 0.0
25.491508007, -0.200374302911, -0.179376639195, -14.104225875, 0.0, 0.0, 0.0, -0.168766605227, -0.149180651715, -14.0613439829, 0.0, 0.0, 0.0
25.54165411, -0.198412280614, -0.154111970373, -14.1095496923, 0.0, 0.0, 0.0, -0.173662607471, -0.13681565241, -14.0582269351, 0.0, 0.0, 0.0
25.5918149948, -0.200627342389, -0.152962578574, -14.1036065269, 0.0, 0.0, 0.0, -0.182472356637, -0.128426178086, -14.0535192267, 0.0, 0.0, 0.0
25.6420049667, -0.191855415666, -0.147253829708, -14.1175856674, 0.0, 0.0, 0.0, -0.165976877032, -0.133761734614, -14.0494472536, 0.0, 0.0, 0.0
25.6921720505, -0.192351400333, -0.151875271649, -14.1171774214, 0.0, 0.0, 0.0, -0.168467546665, -0.142096234958, -14.0546841053, 0.0, 0.0, 0.0
25.7423079014, -0.196796798831, -0.164997372153, -14.1032838765, 0.0, 0.0, 0.0, -0.183540242741, -0.152377098415, -14.0568903875, 0.0, 0.0, 0.0
25.7924859524, -0.189842559745, -0.156044806964, -14.10810764, 0.0, 0.0, 0.0, -0.176810057695, -0.130072097425, -14.0632525749, 0.0, 0.0, 0.0
25.8426361084, -0.189112354022, -0.144158075551, -14.1071335422, 0.0, 0.0, 0.0, -0.172733309302, -0.155795633757, -14.0527308797, 0.0, 0.0, 0.0
25.8927829266, -0.185483860282, -0.143462168964, -14.1045567044, 0.0, 0.0, 0.0, -0.165410181966, -0.15840946721, -14.045331341, 0.0, 0.0, 0.0
25.943046093, -0.191138351808, -0.144316911635, -14.0982743056, 0.0, 0.0, 0.0, -0.16418339587, -0.141438403217, -14.0411988107, 0.0, 0.0, 0.0
25.9932219982, -0.190461486817, -0.166074657982, -14.1019591988, 0.0, 0.0, 0.0, -0.161258167314, -0.120626801806, -14.0494910453, 0.0, 0.0, 0.0
26.0433850288, -0.192539616342, -0.16423240647, -14.0941965897, 0.0, 0.0, 0.0, -0.164526832137, -0.126763604715, -14.0547061212, 0.0, 0.0, 0.0
26.0935339928, -0.204077215791, -0.153191312696, -14.0921314864, 0.0, 0.0, 0.0, -0.176664556909, -0.124274622388, -14.0535445442, 0.0, 0.0, 0.0
26.1436910629, -0.207146582365, -0.152479891154, -14.1009327755, 0.0, 0.0, 0.0, -0.170295476439, -0.0963007997725, -14.0547741057, 0.0, 0.0, 0.0
26.1938591003, -0.19888999447, -0.155669271412, -14.0999814026, 0.0, 0.0, 0.0, -0.167520286682, -0.110036116003, -14.0534148519, 0.0, 0.0, 0.0
26.2440049648, -0.197159829508, -0.161878946794, -14.0927002054, 0.0, 0.0, 0.0, -0.168231746397, -0.125160979413, -14.0553644497, 0.0, 0.0, 0.0
26.2941570282, -0.206219582499, -0.158576373082, -14.1007547345, 0.0, 0.0, 0.0, -0.164411275853, -0.127825277815, -14.0606402684, 0.0, 0.0, 0.0
26.3443200588, -0.203082361979, -0.146849040247, -14.1101886833, 0.0, 0.0, 0.0, -0.156889630764, -0.176817067954, -14.0606243871, 0.0, 0.0, 0.0
26.3945879936, -0.203326978647, -0.13576465187, -14.1108197788, 0.0, 0.0, 0.0, -0.159527129143, -0.144421034451, -14.059130162, 0.0, 0.0, 0.0
26.4447979927, -0.200432092986, -0.138343574402, -14.1136298345, 0.0, 0.0, 0.0, -0.156048352721, -0.14611633221, -14.0427886831, 0.0, 0.0, 0.0
26.4949650764, -0.196109566742, -0.137403814929, -14.1172423723, 0.0, 0.0, 0.0, -0.164754080391, -0.130919303984, -14.0374662808, 0.0, 0.0, 0.0
26.5450949669, -0.195752151503, -0.159901126289, -14.1196033544, 0.0, 0.0, 0.0, -0.165342070904, -0.131794104552, -14.0344213783, 0.0, 0.0, 0.0
26.5952870846, -0.199280151787, -0.157195813212, -14.10303771, 0.0, 0.0, 0.0, -0.161954266201, -0.13324985522, -14.0412839416, 0.0, 0.0, 0.0
26.6454279423, -0.201992731103, -0.166623616392, -14.1079004915, 0.0, 0.0, 0.0, -0.157134042205, -0.134232020455, -14.032308337, 0.0, 0.0, 0.0
26.6955571175, -0.209825048948, -0.1530280374, -14.1136113708, 0.0, 0.0, 0.0, -0.165799731519, -0.109640134776, -14.0528173578, 0.0, 0.0, 0.0
26.7457089424, -0.200421526959, -0.14649835679, -14.1173143222, 0.0, 0.0, 0.0, -0.175506707707, -0.1170634469, -14.0574422604, 0.0, 0.0, 0.0
26.7958700657, -0.20099740783, -0.133753425647, -14.1072784108, 0.0, 0.0, 0.0, -0.1798465595, -0.147767352525, -14.0477437215, 0.0, 0.0, 0.0
26.8461229801, -0.204019160711, -0.156174804827, -14.1036259978, 0.0, 0.0, 0.0, -0.16800014593, -0.144053779575, -14.0542966262, 0.0, 0.0, 0.0
26.8962600231, -0.204962715351, -0.176192227124, -14.1041459286, 0.0, 0.0, 0.0, -0.173196676907, -0.143498066318, -14.075214516, 0.0, 0.0, 0.0
26.9464330673, -0.20425446492, -0.150928572224, -14.1027123074, 0.0, 0.0, 0.0, -0.168723019654, -0.148913193629, -14.0743202808, 0.0, 0.0, 0.0
26.9966380596, -0.205719137582, -0.128328195385, -14.0983988062, 0.0, 0.0, 0.0, -0.160423587684, -0.15340142021, -14.0645752334, 0.0, 0.0, 0.0
27.0468161106, -0.20560707568, -0.129684308029, -14.104287413, 0.0, 0.0, 0.0, -0.162245468701, -0.14455916477, -14.0542509479, 0.0, 0.0, 0.0
27.0969851017, -0.197911222151, -0.139666493689, -14.1055344786, 0.0, 0.0, 0.0, -0.174821109248, -0.135243707801, -14.0662574032, 0.0, 0.0, 0.0
27.1471550465, -0.213828390784, -0.143239987726, -14.1093099458, 0.0, 0.0, 0.0, -0.173806395066, -0.12565928294, -14.0612604947, 0.0, 0.0, 0.0
27.1973009109, -0.207519078531, -0.153429803477, -14.1034920183, 0.0, 0.0, 0.0, -0.171640953395, -0.135942021567, -14.0476623472, 0.0, 0.0, 0.0
27.2475399971, -0.204461318508, -0.159011384912, -14.0958338334, 0.0, 0.0, 0.0, -0.175015888631, -0.131524714437, -14.0636502056, 0.0, 0.0, 0.0
27.2977230549, -0.200552278407, -0.153075170793, -14.1042438709, 0.0, 0.0, 0.0, -0.16461187786, -0.125299351803, -14.060748398, 0.0, 0.0, 0.0
27.3478689194, -0.200250639963, -0.15156663586, -14.1011993432, 0.0, 0.0, 0.0, -0.163387748849, -0.14586676149, -14.0491909706, 0.0, 0.0, 0.0
27.3980140686, -0.189744518664, -0.180523731868, -14.0982864522, 0.0, 0.0, 0.0, -0.163649559779, -0.150118211053, -14.0495752436, 0.0, 0.0, 0.0
27.4481799603, -0.197959911253, -0.166515069094, -14.0989347088, 0.0, 0.0, 0.0, -0.172173939842, -0.103413518374, -14.0508103931, 0.0, 0.0, 0.0
27.4983351231, -0.200951356188, -0.159433962652, -14.1009708709, 0.0, 0.0, 0.0, -0.170548703738, -0.108803668051, -14.0500675426, 0.0, 0.0, 0.0
27.5485179424, -0.209854201436, -0.17876517281, -14.1034510236, 0.0, 0.0, 0.0, -0.172527008738, -0.131114244556, -14.0572612892, 0.0, 0.0, 0.0
27.5986881256, -0.206211017427, -0.158135470061, -14.1058496917, 0.0, 0.0, 0.0, -0.17675528921, -0.119747386286, -14.0525874129, 0.0, 0.0, 0.0
27.6488909721, -0.205734041557, -0.154275652575, -14.1202795206, 0.0, 0.0, 0.0, -0.171970631974, -0.117099937018, -14.0358751375, 0.0, 0.0, 0.0
27.6990339756, -0.204074156825, -0.154552029207, -14.1136617432, 0.0, 0.0, 0.0, -0.172903657124, -0.125286465041, -14.0450105569, 0.0, 0.0, 0.0
27.7492060661, -0.202006608803, -0.152218444929, -14.1063220838, 0.0, 0.0, 0.0, -0.169173573343, -0.12673785998, -14.0458145391, 0.0, 0.0, 0.0
27.7993569374, -0.20654874842, -0.154640395329, -14.1093412637, 0.0, 0.0, 0.0, -0.172727362065, -0.137676634756, -14.0473149612, 0.0, 0.0, 0.0
27.8495800495, -0.206772112764, -0.160765536109, -14.106580279, 0.0, 0.0, 0.0, -0.170355671012, -0.130636336232, -14.0567600102, 0.0, 0.0, 0.0
27.8997199535, -0.189921594739, -0.179708021959, -14.1117994481, 0.0, 0.0, 0.0, -0.16863911713, -0.11973235181, -14.0535090705, 0.0, 0.0, 0.0
27.9498939514, -0.199649946349, -0.18672837616, -14.1170138721, 0.0, 0.0, 0.0, -0.169937414493, -0.124725089228, -14.0566244999, 0.0, 0.0, 0.0
28.0000319481, -0.201325295266, -0.166806837602, -14.1105712016, 0.0, 0.0, 0.0, -0.163051413286, -0.147615368441, -14.0542977176, 0.0, 0.0, 0.0
28.0502130985, -0.196110458021, -0.148536319159, -14.110744406, 0.0, 0.0, 0.0, -0.158345179047, -0.142407817639, -14.0573901747, 0.0, 0.0, 0.0
28.1003510952, -0.198734661228, -0.15058496161, -14.1030491905, 0.0, 0.0, 0.0, -0.166767073785, -0.144737942729, -14.0476883501, 0.0, 0.0, 0.0
28.1504929066, -0.199714971892, -0.137204868619, -14.1070426518, 0.0, 0.0, 0.0, -0.169818467474, -0.143368772183, -14.0501570026, 0.0, 0.0, 0.0
28.2006540298, -0.205621695933, -0.146586258591, -14.1103266869, 0.0, 0.0, 0.0, -0.16846021477, -0.157397440672, -14.0533285275, 0.0, 0.0, 0.0
28.2508239746, -0.200511453824, -0.163164040233, -14.1182568843, 0.0, 0.0, 0.0, -0.158596861716, -0.139608521686, -14.0465069031, 0.0, 0.0, 0.0
28.3009529114, -0.193955142771, -0.177102726267, -14.099626305, 0.0, 0.0, 0.0, -0.165049536727, -0.167711212051, -14.0612942191, 0.0, 0.0, 0.0
28.3511021137, -0.204957151135, -0.173728117967, -14.0952908857, 0.0, 0.0, 0.0, -0.159626596289, -0.145188581424, -14.0452404071, 0.0, 0.0, 0.0
28.4012420177, -0.193707611854, -0.170333613182, -14.1140345427, 0.0, 0.0, 0.0, -0.165383522345, -0.152681184217, -14.0578692902, 0.0, 0.0, 0.0
28.4514000416, -0.198572389157, -0.156549651745, -14.0962318671, 0.0, 0.0, 0.0, -0.16840933798, -0.161352456166, -14.0549318213, 0.0, 0.0, 0.0
28.5015408993, -0.195601510738, -0.157817113679, -14.0988570697, 0.0, 0.0, 0.0, -0.163454515592, -0.164600080589, -14.0452129686, 0.0, 0.0, 0.0
28.5517010689, -0.200101854386, -0.161020397538, -14.1031397549, 0.0, 0.0, 0.0, -0.157403679375, -0.151027105667, -14.0430730952, 0.0, 0.0, 0.0
28.6018519402, -0.20396146012, -0.15383035846, -14.1068814283, 0.0, 0.0, 0.0, -0.164342283718, -0.138005840265, -14.0551029841, 0.0, 0.0, 0.0
28.6520869732, -0.201260341061, -0.14404057208, -14.1177618681, 0.0, 0.0, 0.0, -0.157442439671, -0.126780712799, -14.0571845859, 0.0, 0.0, 0.0
28.7022809982, -0.205869298989, -0.144338084827, -14.1088506009, 0.0, 0.0, 0.0, -0.163196252339, -0.117288583711, -14.0437039854, 0.0, 0.0, 0.0
28.7524399757, -0.207630603824, -0.14332917677, -14.1044783077, 0.0, 0.0, 0.0, -0.165061623455, -0.123019602475, -14.052688315, 0.0, 0.0, 0.0
28.8025901318, -0.211304453843, -0.146924794403, -14.1081742427, 0.0, 0.0, 0.0, -0.17635815679, -0.112095529354, -14.0648277682, 0.0, 0.0, 0.0
28.8527460098, -0.204497158189, -0.156398134839, -14.1082331293, 0.0, 0.0, 0.0, -0.167052486728, -0.12394584872, -14.0514108236, 0.0, 0.0, 0.0
28.9028890133, -0.196640785755, -0.160909494082, -14.1115118827, 0.0, 0.0, 0.0, -0.164714924747, -0.127633879904, -14.0483349626, 0.0, 0.0, 0.0
28.9530711174, -0.202753896456, -0.175673147881, -14.1054339952, 0.0, 0.0, 0.0, -0.154138521221, -0.137847722239, -14.0468131955, 0.0, 0.0, 0.0
29.0032110214, -0.201377437753, -0.160516866388, -14.1037286841, 0.0, 0.0, 0.0, -0.157952492224, -0.11093973927, -14.0425709219, 0.0, 0.0, 0.0
29.0533540249, -0.209294659314, -0.158696612572, -14.0930860755, 0.0, 0.0, 0.0, -0.162768253399, -0.110912862675, -14.0520462316, 0.0, 0.0, 0.0
29.103523016, -0.193911373092, -0.151758923339, -14.0867088271, 0.0, 0.0, 0.0, -0.159997399726, -0.13369077339, -14.0529293299, 0.0, 0.0, 0.0
29.1537051201, -0.201210061847, -0.158095735067, -14.088135503, 0.0, 0.0, 0.0, -0.166882574665, -0.128975891026, -14.0571256774, 0.0, 0.0, 0.0
29.2038719654, -0.192674563424, -0.160746052115, -14.0934943308, 0.0, 0.0, 0.0, -0.175781685874, -0.12395188386, -14.0539972712, 0.0, 0.0, 0.0
29.2540130615, -0.195316515817, -0.156230661135, -14.0947565157, 0.0, 0.0, 0.0, -0.1741169693, -0.128089522148, -14.0620426104, 0.0, 0.0, 0.0
29.3041760921, -0.195384603699, -0.15658961878, -14.1084903545, 0.0, 0.0, 0.0, -0.173824834526, -0.130451920272, -14.0587308141, 0.0, 0.0, 0.0
29.3543419838, -0.199338445313, -0.120318816126, -14.1082331001, 0.0, 0.0, 0.0, -0.174836010697, -0.130222943806, -14.0637326178, 0.0, 0.0, 0.0
29.4044840336, -0.19508445874, -0.131270365438, -14.1022159291, 0.0, 0.0, 0.0, -0.172247464346, -0.125895268048, -14.0487648385, 0.0, 0.0, 0.0
29.4546639919, -0.193644328626, -0.140304649593, -14.1032280651, 0.0, 0.0, 0.0, -0.168617843241, -0.123288382827, -14.0486319038, 0.0, 0.0, 0.0
29.5048470497, -0.193518647074, -0.15126501459, -14.1035144278, 0.0, 0.0, 0.0, -0.162699673364, -0.133418986378, -14.0568755609, 0.0, 0.0, 0.0
29.5550169945, -0.193210039986, -0.14286654818, -14.1127508148, 0.0, 0.0, 0.0, -0.155681767535, -0.128040511207, -14.0467969124, 0.0, 0.0, 0.0
29.6051769257, -0.200308618102, -0.163309751597, -14.1132053532, 0.0, 0.0, 0.0, -0.16149498164, -0.135210002399, -14.0396613461, 0.0, 0.0, 0.0
29.6553189754, -0.196539668583, -0.154193460224, -14.099275459, 0.0, 0.0, 0.0, -0.160254184499, -0.158967448323, -14.047638491, 0.0, 0.0, 0.0
29.7054920197, -0.194611485283, -0.156068741728, -14.1060962538, 0.0, 0.0, 0.0, -0.157142714266, -0.139398361766, -14.055921362, 0.0, 0.0, 0.0
29.7556419373, -0.192039004603, -0.170000176965, -14.1173003021, 0.0, 0.0, 0.0, -0.162694339068, -0.140497783063, -14.032960039, 0.0, 0.0, 0.0
29.8057761192, -0.195725376292, -0.147806099548, -14.1123000507, 0.0, 0.0, 0.0, -0.163607589826, -0.127786380887, -14.0436158142, 0.0, 0.0, 0.0
29.855948925, -0.196043547669, -0.154847977821, -14.1128867691, 0.0, 0.0, 0.0, -0.157340458954, -0.136474742921, -14.0471067428, 0.0, 0.0, 0.0
29.9060809612, -0.203646378259, -0.129569075111, -14.1154455775, 0.0, 0.0, 0.0, -0.160034981122, -0.122858290198, -14.0567041135, 0.0, 0.0, 0.0
29.9562780857, -0.199723259232, -0.140341744888, -14.1100218595, 0.0, 0.0, 0.0, -0.165536820173, -0.118186649778, -14.0555695674, 0.0, 0.0, 0.0
30.0064430237, -0.199219316551, -0.147702081571, -14.1089953904, 0.0, 0.0, 0.0, -0.173599819811, -0.128102263546, -14.0388022318, 0.0, 0.0, 0.0
30.056579113, -0.197783740733, -0.158967789876, -14.1086884934, 0.0, 0.0, 0.0, -0.17777016716, -0.125277322819, -14.0442155925, 0.0, 0.0, 0.0
30.1067609787, -0.193781677216, -0.14731554829, -14.1068308789, 0.0, 0.0, 0.0, -0.182053211056, -0.128610848369, -14.0590344003, 0.0, 0.0, 0.0
30.1569781303, -0.207063372502, -0.154813023207, -14.0980663252, 0.0, 0.0, 0.0, -0.184148146168, -0.138823346402, -14.0442192818, 0.0, 0.0, 0.0
30.2071809769, -0.207399008202, -0.161671337187, -14.1091004967, 0.0, 0.0, 0.0, -0.182249787991, -0.130951017017, -14.0466156849, 0.0, 0.0, 0.0
30.2576141357, -0.203476130397, -0.14349963561, -14.1052471588, 0.0, 0.0, 0.0, -0.175746861198, -0.13963618088, -14.041553638, 0.0, 0.0, 0.0
30.3080449104, -0.20245766231, -0.137448094488, -14.1089733324, 0.0, 0.0, 0.0, -0.163043862297, -0.134507853919, -14.0549302216, 0.0, 0.0, 0.0
30.3587241173, -0.202222399187, -0.160914418962, -14.1146966925, 0.0, 0.0, 0.0, -0.167000985081, -0.145766227679, -14.0637367742, 0.0, 0.0, 0.0
30.4091699123, -0.198330188178, -0.171566424821, -14.1161515275, 0.0, 0.0, 0.0, -0.168802317474, -0.141358839968, -14.0563201277, 0.0, 0.0, 0.0
30.4594979286, -0.197643041755, -0.14722837761, -14.0990779003, 0.0, 0.0, 0.0, -0.165359966213, -0.146998222111, -14.0458648677, 0.0, 0.0, 0.0
30.509855032, -0.197135127713, -0.145329928943, -14.1014170255, 0.0, 0.0, 0.0, -0.166463294965, -0.122997974891, -14.0409031743, 0.0, 0.0, 0.0
30.5604219437, -0.199412163131, -0.145878832936, -14.0962737069, 0.0, 0.0, 0.0, -0.160953366038, -0.125543038988, -14.0501263432, 0.0, 0.0, 0.0
30.612249136, -0.19943165748, -0.173219068853, -14.0967400011, 0.0, 0.0, 0.0, -0.164014470249, -0.122072316721, -14.061374178, 0.0, 0.0, 0.0
30.6625440121, -0.20308539078, -0.170331857917, -14.1017542558, 0.0, 0.0, 0.0, -0.159541958451, -0.133197422681, -14.0465038472, 0.0, 0.0, 0.0
30.712690115, -0.216350983141, -0.180823957321, -14.0992862282, 0.0, 0.0, 0.0, -0.164737981113, -0.139394444925, -14.0447822816, 0.0, 0.0, 0.0
30.7628369331, -0.21001952957, -0.183516871934, -14.1224006322, 0.0, 0.0, 0.0, -0.166232705504, -0.138224559612, -14.043149386, 0.0, 0.0, 0.0
30.8129899502, -0.200524990049, -0.170998838696, -14.1094886599, 0.0, 0.0, 0.0, -0.171082877515, -0.131508020663, -14.0434959787, 0.0, 0.0, 0.0
30.8631629944, -0.193363512268, -0.142782965417, -14.1043994235, 0.0, 0.0, 0.0, -0.173405385052, -0.157745840098, -14.0620022856, 0.0, 0.0, 0.0
30.9133789539, -0.196479091628, -0.149862123613, -14.1079024273, 0.0, 0.0, 0.0, -0.164231366841, -0.135622144664, -14.0526070025, 0.0, 0.0, 0.0
30.9635529518, -0.188802107469, -0.145346784639, -14.1118219034, 0.0, 0.0, 0.0, -0.165062382588, -0.111722028629, -14.0390292422, 0.0, 0.0, 0.0
31.013684988, -0.191508392439, -0.153435253821, -14.1114267247, 0.0, 0.0, 0.0, -0.172376890253, -0.109530918503, -14.0476761792, 0.0, 0.0, 0.0
31.0638151169, -0.196064196372, -0.14009109853, -14.1042298479, 0.0, 0.0, 0.0, -0.176344509142, -0.137175750403, -14.0467820083, 0.0, 0.0, 0.0
31.1139810085, -0.191073738458, -0.141062629801, -14.1052218186, 0.0, 0.0, 0.0, -0.180102970211, -0.126985274691, -14.0506895513, 0.0, 0.0, 0.0
31.1641290188, -0.203067151283, -0.145983670749, -14.1103325188, 0.0, 0.0, 0.0, -0.174868828665, -0.126255714865, -14.0498754767, 0.0, 0.0, 0.0
31.2144141197, -0.205165304476, -0.145856697272, -14.1033278028, 0.0, 0.0, 0.0, -0.175750360672, -0.139063064283, -14.0627328866, 0.0, 0.0, 0.0
31.2645730972, -0.199222234749, -0.164452879906, -14.0969268395, 0.0, 0.0, 0.0, -0.174428067721, -0.109927074517, -14.0545681127, 0.0, 0.0, 0.0
31.3147230148, -0.190866044185, -0.169457616722, -14.1049524912, 0.0, 0.0, 0.0, -0.17182397972, -0.127313219034, -14.0501516451, 0.0, 0.0, 0.0
31.3648929596, -0.18757368791, -0.144371330996, -14.1054187157, 0.0, 0.0, 0.0, -0.172036401268, -0.151735055057, -14.0551041935, 0.0, 0.0, 0.0
31.4150300026, -0.201815162108, -0.159687219467, -14.1093891788, 0.0, 0.0, 0.0, -0.174839741316, -0.134476596554, -14.0607208778, 0.0, 0.0, 0.0
31.4651699066, -0.20556008108, -0.122710990844, -14.1158953591, 0.0, 0.0, 0.0, -0.168011879894, -0.141108747961, -14.0551886668, 0.0, 0.0, 0.0
31.5154030323, -0.203530796121, -0.159662496434, -14.111666442, 0.0, 0.0, 0.0, -0.161428373362, -0.147239936551, -14.0461469875, 0.0, 0.0, 0.0
31.565926075, -0.199999662379, -0.149831638268, -14.1000441563, 0.0, 0.0, 0.0, -0.155940617185, -0.136455605668, -14.0406337578, 0.0, 0.0, 0.0
31.6162340641, -0.19720776131, -0.161467765609, -14.1060486244, 0.0, 0.0, 0.0, -0.163910747725, -0.126672925029, -14.057575995, 0.0, 0.0, 0.0
31.6666059494, -0.200552784374, -0.175167526442, -14.1050406556, 0.0, 0.0, 0.0, -0.170922221193, -0.119741626615, -14.0546138433, 0.0, 0.0, 0.0
31.7167539597, -0.202406624056, -0.168282034094, -14.1124876924, 0.0, 0.0, 0.0, -0.169972691287, -0.131981209075, -14.0683711569, 0.0, 0.0, 0.0
31.7668850422, -0.196917400467, -0.162155614891, -14.1028255946, 0.0, 0.0, 0.0, -0.17246330574, -0.132704027249, -14.0546775023, 0.0, 0.0, 0.0
31.8170540333, -0.20433002252, -0.134620825632, -14.1086363568, 0.0, 0.0, 0.0, -0.171075307237, -0.136695574382, -14.0577053522, 0.0, 0.0, 0.0
31.867180109, -0.202613956929, -0.143254016469, -14.122235288, 0.0, 0.0, 0.0, -0.171735191685, -0.152999381627, -14.0582695437, 0.0, 0.0, 0.0
31.9173309803, -0.196724475545, -0.14468110825, -14.1099453435, 0.0, 0.0, 0.0, -0.17482895084, -0.15818277634, -14.0576821582, 0.0, 0.0, 0.0
31.9674971104, -0.202250193282, -0.148286992912, -14.1059336318, 0.0, 0.0, 0.0, -0.167392967326, -0.149312835263, -14.0512695277, 0.0, 0.0, 0.0
32.0176849365, -0.20431166778, -0.151474816756, -14.1020221009, 0.0, 0.0, 0.0, -0.160013703806, -0.132630801658, -14.0516909045, 0.0, 0.0, 0.0
32.0678479671, -0.197740918701, -0.161733311901, -14.0974496585, 0.0, 0.0, 0.0, -0.16207548946, -0.115904816086, -14.055313568, 0.0, 0.0, 0.0
32.1179869175, -0.192879797115, -0.16018575971, -14.0981301244, 0.0, 0.0, 0.0, -0.164438939631, -0.13062448073, -14.0527710343, 0.0, 0.0, 0.0
32.1681981087, -0.203970302673, -0.160355534184, -14.1097131132, 0.0, 0.0, 0.0, -0.168523266359, -0.139805332763, -14.0587151781, 0.0, 0.0, 0.0
32.2183759212, -0.203856759312, -0.157262592568, -14.0990618463, 0.0, 0.0, 0.0, -0.172335107727, -0.14691461981, -14.0489542189, 0.0, 0.0, 0.0
32.2685050964, -0.203521386941, -0.14492853554, -14.0925788724, 0.0, 0.0, 0.0, -0.168709801611, -0.121517646478, -14.048429452, 0.0, 0.0, 0.0
32.3186509609, -0.195398301774, -0.126109656449, -14.0947174512, 0.0, 0.0, 0.0, -0.175048298917, -0.132357653496, -14.047484695, 0.0, 0.0, 0.0
32.3687710762, -0.199325977681, -0.120721355623, -14.101309184, 0.0, 0.0, 0.0, -0.172464137649, -0.118777025418, -14.0404521037, 0.0, 0.0, 0.0
32.4189450741, -0.202142294151, -0.118249144847, -14.1019187369, 0.0, 0.0, 0.0, -0.160889850366, -0.116137994676, -14.042449502, 0.0, 0.0, 0.0
32.4690830708, -0.203403453907, -0.148858200902, -14.1012240088, 0.0, 0.0, 0.0, -0.171349995546, -0.104235063484, -14.0337771847, 0.0, 0.0, 0.0
32.5192301273, -0.209903660698, -0.153444389946, -14.0992604786, 0.0, 0.0, 0.0, -0.172488303899, -0.125963830383, -14.0393605371, 0.0, 0.0, 0.0
32.5694060326, -0.200480909407, -0.149010987799, -14.1119805992, 0.0, 0.0, 0.0, -0.174387142326, -0.136752400639, -14.0376036052, 0.0, 0.0, 0.0
32.6195559502, -0.198104530099, -0.158508032241, -14.1070956505, 0.0, 0.0, 0.0, -0.175083010297, -0.117248101195, -14.0378162632, 0.0, 0.0, 0.0
32.6697900295, -0.196206530257, -0.130290926606, -14.1057206597, 0.0, 0.0, 0.0, -0.167577158515, -0.146350871264, -14.0395403905, 0.0, 0.0, 0.0
32.7199831009, -0.196690080247, -0.14111914256, -14.0946500891, 0.0, 0.0, 0.0, -0.171619425324, -0.144650800488, -14.0399822465, 0.0, 0.0, 0.0
32.7701210976, -0.203349179937, -0.137429455327, -14.1043030592, 0.0, 0.0, 0.0, -0.177895691663, -0.135250463153, -14.0580951316, 0.0, 0.0, 0.0
32.8202769756, -0.198179013847, -0.14558254344, -14.0969839122, 0.0, 0.0, 0.0, -0.171767669805, -0.140511303803, -14.0535950585, 0.0, 0.0, 0.0
32.8704380989, -0.206050018065, -0.155258924298, -14.0996030172, 0.0, 0.0, 0.0, -0.170394685694, -0.140207403854, -14.0491502944, 0.0, 0.0, 0.0
32.9205930233, -0.186934884046, -0.162855035859, -14.1010746572, 0.0, 0.0, 0.0, -0.158349296715, -0.142153940639, -14.0451785927, 0.0, 0.0, 0.0
32.9708161354, -0.191575892465, -0.165788000535, -14.1164332717, 0.0, 0.0, 0.0, -0.169383740962, -0.141256338222, -14.0496342919, 0.0, 0.0, 0.0
33.0209600925, -0.192118968923, -0.164963696447, -14.1080241626, 0.0, 0.0, 0.0, -0.169221031548, -0.134313631827, -14.0397914528, 0.0, 0.0, 0.0
33.0711019039, -0.193174899641, -0.169245245323, -14.0972002832, 0.0, 0.0, 0.0, -0.173308694115, -0.12736715699, -14.0336047973, 0.0, 0.0, 0.0
33.1213009357, -0.18891116816, -0.176341923243, -14.120802619, 0.0, 0.0, 0.0, -0.172068379285, -0.139276136579, -14.0356872203, 0.0, 0.0, 0.0
33.1714529991, -0.192607471733, -0.145868929947, -14.1062986446, 0.0, 0.0, 0.0, -0.165872695091, -0.127906972347, -14.0388110822, 0.0, 0.0, 0.0
33.2216460705, -0.198402948805, -0.151954299698, -14.1030815973, 0.0, 0.0, 0.0, -0.167473245612, -0.131167571195, -14.036089015, 0.0, 0.0, 0.0
33.2718110085, -0.194698776303, -0.157610737693, -14.1099754812, 0.0, 0.0, 0.0, -0.162386280753, -0.129779712175, -14.0467645644, 0.0, 0.0, 0.0
33.3219721317, -0.190353598103, -0.146285907085, -14.107193196, 0.0, 0.0, 0.0, -0.162420136021, -0.163082721989, -14.0375220065, 0.0, 0.0, 0.0
33.3721389771, -0.201094476487, -0.13739598035, -14.1012637765, 0.0, 0.0, 0.0, -0.165496082552, -0.139264108969, -14.0502983733, 0.0, 0.0, 0.0
33.4223151207, -0.200709420237, -0.156226668966, -14.0958432379, 0.0, 0.0, 0.0, -0.172831438826, -0.126371904306, -14.0546892922, 0.0, 0.0, 0.0
33.4724869728, -0.202433242948, -0.131966695099, -14.0933900803, 0.0, 0.0, 0.0, -0.172395365473, -0.130796235703, -14.0530545149, 0.0, 0.0, 0.0
33.5226500034, -0.198863831723, -0.146078629697, -14.0959364011, 0.0, 0.0, 0.0, -0.175007167385, -0.140527502204, -14.0660378496, 0.0, 0.0, 0.0
33.5728111267, -0.195653888238, -0.15004537442, -14.1106487526, 0.0, 0.0, 0.0, -0.184730364407, -0.136776188807, -14.0585372373, 0.0, 0.0, 0.0
33.6230609417, -0.198482535695, -0.149724697437, -14.1025413762, 0.0, 0.0, 0.0, -0.175338272086, -0.132570060135, -14.0609441253, 0.0, 0.0, 0.0
33.6745800972, -0.200621618739, -0.137928617144, -14.0996921339, 0.0, 0.0, 0.0, -0.169339787597, -0.138398529614, -14.0618340257, 0.0, 0.0, 0.0
33.7247400284, -0.20285915369, -0.130986047183, -14.1080212672, 0.0, 0.0, 0.0, -0.16895914249, -0.135458646757, -14.054637272, 0.0, 0.0, 0.0
33.7748839855, -0.204422612026, -0.142914988531, -14.1025817612, 0.0, 0.0, 0.0, -0.165658561312, -0.127083674663, -14.0384678891, 0.0, 0.0, 0.0
33.8250370026, -0.202447756439, -0.127439851722, -14.0998661081, 0.0, 0.0, 0.0, -0.159679730697, -0.130475413992, -14.0395398201, 0.0, 0.0, 0.0
33.8751699924, -0.202942986938, -0.113297861237, -14.1107617856, 0.0, 0.0, 0.0, -0.163075742541, -0.118669799804, -14.0437247614, 0.0, 0.0, 0.0
33.9253101349, -0.197236131904, -0.14117760639, -14.111020262, 0.0, 0.0, 0.0, -0.157036501116, -0.117340504591, -14.0392629708, 0.0, 0.0, 0.0
33.9754550457, -0.201851351715, -0.137092599672, -14.1020621226, 0.0, 0.0, 0.0, -0.163519319838, -0.10028636434, -14.0489310786, 0.0, 0.0, 0.0
34.0256009102, -0.202273525994, -0.137524014636, -14.1083821459, 0.0, 0.0, 0.0, -0.163974328049, -0.107964254848, -14.0471746522, 0.0, 0.0, 0.0
34.0757861137, -0.198662024493, -0.143055849767, -14.1110959786, 0.0, 0.0, 0.0, -0.167544186804, -0.123800468903, -14.054260293, 0.0, 0.0, 0.0
34.1259400845, -0.206500243605, -0.142238150569, -14.0934230758, 0.0, 0.0, 0.0, -0.163352175818, -0.116283591462, -14.046208519, 0.0, 0.0, 0.0
34.176099062, -0.204576476495, -0.142268960619, -14.0970130161, 0.0, 0.0, 0.0, -0.181758991536, -0.119442950277, -14.0425679996, 0.0, 0.0, 0.0
34.2262821198, -0.203672103825, -0.142744824765, -14.092744557, 0.0, 0.0, 0.0, -0.167417419738, -0.13190892009, -14.0580338535, 0.0, 0.0, 0.0
34.2764360905, -0.203071149823, -0.157095565349, -14.093575342, 0.0, 0.0, 0.0, -0.170302690456, -0.125445459035, -14.0624723231, 0.0, 0.0, 0.0
34.3265841007, -0.206407952191, -0.133160794681, -14.0986421561, 0.0, 0.0, 0.0, -0.166535370291, -0.14296141007, -14.0400897099, 0.0, 0.0, 0.0
34.3767170906, -0.194449129955, -0.145215817559, -14.1026941273, 0.0, 0.0, 0.0, -0.170235401737, -0.143815329257, -14.0571391295, 0.0, 0.0, 0.0
34.4269390106, -0.198358527587, -0.149537761261, -14.1049172786, 0.0, 0.0, 0.0, -0.180819389457, -0.15754443319, -14.0667165062, 0.0, 0.0, 0.0
34.4771111012, -0.201702930339, -0.160495998159, -14.1135592167, 0.0, 0.0, 0.0, -0.17875612758, -0.142433720631, -14.0627318179, 0.0, 0.0, 0.0
34.5272939205, -0.198896588189, -0.178443675162, -14.1065413434, 0.0, 0.0, 0.0, -0.163871918183, -0.150265837553, -14.0436732891, 0.0, 0.0, 0.0
34.5774679184, -0.199562244478, -0.16839957461, -14.1034435954, 0.0, 0.0, 0.0, -0.163253592566, -0.149591586363, -14.052044431, 0.0, 0.0, 0.0
34.6276550293, -0.198119623952, -0.155270027951, -14.1092622014, 0.0, 0.0, 0.0, -0.178042021082, -0.144256219988, -14.0464576163, 0.0, 0.0, 0.0
34.6778120995, -0.199695780054, -0.173492629451, -14.1213251742, 0.0, 0.0, 0.0, -0.178159635709, -0.139287005536, -14.0449481161, 0.0, 0.0, 0.0
34.7279720306, -0.19516208516, -0.155281801957, -14.1156142143, 0.0, 0.0, 0.0, -0.178817644858, -0.126565120837, -14.0427482674, 0.0, 0.0, 0.0
34.7781310081, -0.204873780605, -0.203749517597, -14.1163944765, 0.0, 0.0, 0.0, -0.164178979645, -0.117497053427, -14.0527968242, 0.0, 0.0, 0.0
34.8283259869, -0.199002012358, -0.187195613667, -14.1235067805, 0.0, 0.0, 0.0, -0.159211121006, -0.0934174743565, -14.0377978738, 0.0, 0.0, 0.0
34.8784730434, -0.199156893829, -0.177645330565, -14.1071774551, 0.0, 0.0, 0.0, -0.168739880577, -0.120164020247, -14.0420405155, 0.0, 0.0, 0.0
34.9286549091, -0.200062684006, -0.165828010512, -14.1139769067, 0.0, 0.0, 0.0, -0.174651896364, -0.114547754117, -14.0473551827, 0.0, 0.0, 0.0
34.9788000584, -0.194878206537, -0.168123160015, -14.1034756085, 0.0, 0.0, 0.0, -0.174738164533, -0.122454591264, -14.0378109877, 0.0, 0.0, 0.0
35.0289449692, -0.195721594977, -0.172134059277, -14.1051865452, 0.0, 0.0, 0.0, -0.170435750313, -0.115290868859, -14.0424490508, 0.0, 0.0, 0.0
35.0799241066, -0.194815838827, -0.160179860119, -14.098514767, 0.0, 0.0, 0.0, -0.16322313257, -0.128848150217, -14.0405915934, 0.0, 0.0, 0.0
35.1301009655, -0.202233917007, -0.149283776519, -14.1021076906, 0.0, 0.0, 0.0, -0.16156603567, -0.125542087332, -14.0415352957, 0.0, 0.0, 0.0
35.1802370548, -0.201951555092, -0.14989266418, -14.1054500193, 0.0, 0.0, 0.0, -0.169407674461, -0.116094242348, -14.0405826726, 0.0, 0.0, 0.0
35.2303819656, -0.194861093543, -0.149477549985, -14.1127494573, 0.0, 0.0, 0.0, -0.165517630306, -0.0964175148951, -14.0484032481, 0.0, 0.0, 0.0
35.2805290222, -0.191808002102, -0.145800790876, -14.1084983448, 0.0, 0.0, 0.0, -0.171521581798, -0.106844990806, -14.0552633801, 0.0, 0.0, 0.0
35.3307080269, -0.194560309151, -0.157501385472, -14.1138004517, 0.0, 0.0, 0.0, -0.170204034418, -0.102978469125, -14.0624683151, 0.0, 0.0, 0.0
35.3809380531, -0.198386938238, -0.15974548495, -14.1043955352, 0.0, 0.0, 0.0, -0.173192692676, -0.12554846672, -14.050765125, 0.0, 0.0, 0.0
35.4310970306, -0.202645617898, -0.161782731685, -14.1122509912, 0.0, 0.0, 0.0, -0.170195294151, -0.118942672014, -14.041378446, 0.0, 0.0, 0.0
35.481249094, -0.199514908197, -0.151135919407, -14.10223111, 0.0, 0.0, 0.0, -0.169100618483, -0.122664862133, -14.0454682543, 0.0, 0.0, 0.0
35.5314021111, -0.198245023015, -0.143353326269, -14.1030048181, 0.0, 0.0, 0.0, -0.169462765393, -0.11112143324, -14.053731066, 0.0, 0.0, 0.0
35.5815460682, -0.204703351692, -0.160074631945, -14.1097978202, 0.0, 0.0, 0.0, -0.172954550293, -0.097709376727, -14.0526539856, 0.0, 0.0, 0.0
35.6317579746, -0.199769661882, -0.16477198274, -14.1062583888, 0.0, 0.0, 0.0, -0.165638234885, -0.128603081554, -14.0486887751, 0.0, 0.0, 0.0
35.6822121143, -0.201643360157, -0.156011851592, -14.1130021171, 0.0, 0.0, 0.0, -0.170669219447, -0.134686800225, -14.0561176744, 0.0, 0.0, 0.0
35.7324709892, -0.20032813321, -0.170159992398, -14.1039695805, 0.0, 0.0, 0.0, -0.164778606684, -0.136775770548, -14.0589864357, 0.0, 0.0, 0.0
35.7825980186, -0.202772709656, -0.150963340413, -14.1072679503, 0.0, 0.0, 0.0, -0.163077104571, -0.123128890589, -14.0567095291, 0.0, 0.0, 0.0
35.8327999115, -0.200494334473, -0.15714235876, -14.1073961569, 0.0, 0.0, 0.0, -0.166161970215, -0.13453255956, -14.0541435454, 0.0, 0.0, 0.0
35.8830001354, -0.197866256944, -0.165614754318, -14.1105596296, 0.0, 0.0, 0.0, -0.178467422425, -0.13174122833, -14.0530367301, 0.0, 0.0, 0.0
35.9331390858, -0.201299369979, -0.153030537939, -14.1059685131, 0.0, 0.0, 0.0, -0.176816668327, -0.130858578035, -14.0369763592, 0.0, 0.0, 0.0
35.9833400249, -0.206089856539, -0.182759601393, -14.1128148168, 0.0, 0.0, 0.0, -0.165360182417, -0.154649453143, -14.0354657883, 0.0, 0.0, 0.0
36.0336670876, -0.19747849636, -0.157599897081, -14.1082567773, 0.0, 0.0, 0.0, -0.170701770003, -0.143202651975, -14.0284659123, 0.0, 0.0, 0.0
36.083835125, -0.19763839178, -0.143117294121, -14.1099146441, 0.0, 0.0, 0.0, -0.174097701569, -0.131236698583, -14.0340214565, 0.0, 0.0, 0.0
36.1340389252, -0.193132887408, -0.168668012409, -14.0983685275, 0.0, 0.0, 0.0, -0.170260069127, -0.124429462914, -14.0461560368, 0.0, 0.0, 0.0
36.1842079163, -0.201122537549, -0.179506265166, -14.1075543081, 0.0, 0.0, 0.0, -0.168128878486, -0.13798028998, -14.0435066004, 0.0, 0.0, 0.0
36.2343559265, -0.203361452631, -0.165484138977, -14.1108389609, 0.0, 0.0, 0.0, -0.168957785026, -0.130151108911, -14.0462464362, 0.0, 0.0, 0.0
36.2845060825, -0.195603521451, -0.162204956699, -14.1126613488, 0.0, 0.0, 0.0, -0.173203264982, -0.135013762645, -14.0560908111, 0.0, 0.0, 0.0
36.3346729279, -0.202047514002, -0.16158864866, -14.123798515, 0.0, 0.0, 0.0, -0.171158990614, -0.185818202637, -14.0546097687, 0.0, 0.0, 0.0
36.3848669529, -0.203520590531, -0.153419623631, -14.1047337376, 0.0, 0.0, 0.0, -0.170085857723, -0.164604245356, -14.0403802767, 0.0, 0.0, 0.0
36.4350450039, -0.200086925148, -0.155631648877, -14.0992271586, 0.0, 0.0, 0.0, -0.166896381667, -0.15930096448, -14.0603690573, 0.0, 0.0, 0.0
36.4852459431, -0.200326485289, -0.161189343271, -14.0895508892, 0.0, 0.0, 0.0, -0.168773910134, -0.143435867974, -14.0714143035, 0.0, 0.0, 0.0
36.5353970528, -0.205349175238, -0.173369886798, -14.0952216409, 0.0, 0.0, 0.0, -0.174182639206, -0.136206679487, -14.0523145039, 0.0, 0.0, 0.0
36.5855739117, -0.203461140842, -0.152261696858, -14.0935015113, 0.0, 0.0, 0.0, -0.164014501017, -0.145517646552, -14.0546273568, 0.0, 0.0, 0.0
36.6357190609, -0.191300586794, -0.148025968442, -14.0917957069, 0.0, 0.0, 0.0, -0.16892872065, -0.139118932854, -14.0589082504, 0.0, 0.0, 0.0
36.6858711243, -0.190255641907, -0.13895079357, -14.1028755672, 0.0, 0.0, 0.0, -0.165890514356, -0.150077425217, -14.0551135479, 0.0, 0.0, 0.0
36.7360379696, -0.190506662766, -0.137261649455, -14.1069416846, 0.0, 0.0, 0.0, -0.172974489826, -0.146639177519, -14.0604461049, 0.0, 0.0, 0.0
36.786233902, -0.194616308379, -0.145093226102, -14.1076424136, 0.0, 0.0, 0.0, -0.171777977357, -0.138637468254, -14.0583834466, 0.0, 0.0, 0.0
36.8366611004, -0.200359302729, -0.138674865625, -14.1097425437, 0.0, 0.0, 0.0, -0.157038400585, -0.116042961652, -14.0670181884, 0.0, 0.0, 0.0
36.8868479729, -0.202587155887, -0.147977199189, -14.1014566003, 0.0, 0.0, 0.0, -0.15463003384, -0.0994942297804, -14.0597501853, 0.0, 0.0, 0.0
36.9370229244, -0.205185278908, -0.15471450744, -14.0972130771, 0.0, 0.0, 0.0, -0.157758286709, -0.0840543884366, -14.0440229154, 0.0, 0.0, 0.0
36.9871890545, -0.203372360023, -0.155519825633, -14.0931019325, 0.0, 0.0, 0.0, -0.16351999676, -0.107396255523, -14.0394051681, 0.0, 0.0, 0.0
37.0373110771, -0.200060235717, -0.155986549175, -14.0893695434, 0.0, 0.0, 0.0, -0.161513053325, -0.117209661717, -14.0378707462, 0.0, 0.0, 0.0
37.0874569416, -0.199282898483, -0.172460584845, -14.0954990663, 0.0, 0.0, 0.0, -0.162202459433, -0.128085619739, -14.0383152054, 0.0, 0.0, 0.0
37.137638092, -0.201477802914, -0.186473252316, -14.1001202189, 0.0, 0.0, 0.0, -0.154958647522, -0.168396236082, -14.0475799523, 0.0, 0.0, 0.0
37.1878750324, -0.202887084176, -0.177923762675, -14.1071873615, 0.0, 0.0, 0.0, -0.164779485716, -0.148105760209, -14.058713535, 0.0, 0.0, 0.0
37.2380440235, -0.201942028099, -0.186971406657, -14.1052716451, 0.0, 0.0, 0.0, -0.169777095807, -0.174404248035, -14.0529884891, 0.0, 0.0, 0.0
37.2883310318, -0.202660079632, -0.177608569872, -14.0932820777, 0.0, 0.0, 0.0, -0.169706019953, -0.161129669441, -14.0535916187, 0.0, 0.0, 0.0
37.3384740353, -0.195780575001, -0.164546532908, -14.0930632524, 0.0, 0.0, 0.0, -0.171876624277, -0.153017657464, -14.0397041128, 0.0, 0.0, 0.0
37.3886070251, -0.202399775097, -0.174185414209, -14.0973966899, 0.0, 0.0, 0.0, -0.174944623368, -0.126166190367, -14.0501333916, 0.0, 0.0, 0.0
37.4387600422, -0.190795669999, -0.1699690908, -14.1037189213, 0.0, 0.0, 0.0, -0.177126638613, -0.133954609832, -14.0486179126, 0.0, 0.0, 0.0
37.4888870716, -0.206440974163, -0.1458134457, -14.1115796965, 0.0, 0.0, 0.0, -0.16302995021, -0.131709909512, -14.0408126994, 0.0, 0.0, 0.0
37.5390229225, -0.208854036894, -0.149781546582, -14.1124182155, 0.0, 0.0, 0.0, -0.165056165455, -0.137296755115, -14.0526481889, 0.0, 0.0, 0.0
37.5891780853, -0.206616903665, -0.143489743208, -14.1100608556, 0.0, 0.0, 0.0, -0.164447278355, -0.143726266053, -14.0449743574, 0.0, 0.0, 0.0
37.639332056, -0.204677251735, -0.151511139075, -14.1130854054, 0.0, 0.0, 0.0, -0.162149437124, -0.13807084633, -14.0419728998, 0.0, 0.0, 0.0
37.68948102, -0.197673406103, -0.156140567738, -14.107982912, 0.0, 0.0, 0.0, -0.164545953718, -0.122892812469, -14.0341223643, 0.0, 0.0, 0.0
37.739618063, -0.209641152243, -0.138810950251, -14.1024624083, 0.0, 0.0, 0.0, -0.175456244452, -0.124743292427, -14.0516978815, 0.0, 0.0, 0.0
37.789773941, -0.203764377219, -0.153884602243, -14.1010313928, 0.0, 0.0, 0.0, -0.174430349612, -0.119244936166, -14.0450691395, 0.0, 0.0, 0.0
37.8399510384, -0.2031965324, -0.150454929478, -14.110175454, 0.0, 0.0, 0.0, -0.168313446744, -0.115686983938, -14.0408952955, 0.0, 0.0, 0.0
37.8900880814, -0.199415368442, -0.209581358408, -14.1062572893, 0.0, 0.0, 0.0, -0.168036682381, -0.124259556593, -14.0415147172, 0.0, 0.0, 0.0
37.9401929379, -0.198839360237, -0.176362956772, -14.1163475285, 0.0, 0.0, 0.0, -0.168958396158, -0.118689763569, -14.0455866054, 0.0, 0.0, 0.0
37.9903800488, -0.199482910216, -0.170233634891, -14.1096742131, 0.0, 0.0, 0.0, -0.172073156573, -0.131409055568, -14.0506757045, 0.0, 0.0, 0.0
38.0405340195, -0.206208752428, -0.17084162311, -14.0991629267, 0.0, 0.0, 0.0, -0.175871040339, -0.139305740414, -14.0602789761, 0.0, 0.0, 0.0
38.0906960964, -0.211693263224, -0.152914466603, -14.1074429737, 0.0, 0.0, 0.0, -0.178576091098, -0.153097975342, -14.0508489209, 0.0, 0.0, 0.0
38.140871048, -0.198648767698, -0.159359992236, -14.1107578059, 0.0, 0.0, 0.0, -0.17084770819, -0.156897826721, -14.0523003793, 0.0, 0.0, 0.0
38.1910068989, -0.198489468824, -0.15366575479, -14.1086993498, 0.0, 0.0, 0.0, -0.162410912118, -0.135338480263, -14.0527572374, 0.0, 0.0, 0.0
38.2411770821, -0.201934543532, -0.141653047336, -14.1011420987, 0.0, 0.0, 0.0, -0.171825432071, -0.14455112801, -14.0346040325, 0.0, 0.0, 0.0
38.2913250923, -0.201042359868, -0.1717279917, -14.1036259246, 0.0, 0.0, 0.0, -0.171082735474, -0.130548561892, -14.0501599743, 0.0, 0.0, 0.0
38.3414559364, -0.202930944027, -0.164123708167, -14.1085650965, 0.0, 0.0, 0.0, -0.17836460382, -0.132814012955, -14.0481539724, 0.0, 0.0, 0.0
38.3915889263, -0.207547267621, -0.151764156514, -14.105176131, 0.0, 0.0, 0.0, -0.174325246396, -0.128801028017, -14.0596549393, 0.0, 0.0, 0.0
38.4417500496, -0.201122098123, -0.167116429067, -14.1067185297, 0.0, 0.0, 0.0, -0.174497115879, -0.139842011385, -14.0626372799, 0.0, 0.0, 0.0
38.4919080734, -0.204040275149, -0.157147217674, -14.1178192636, 0.0, 0.0, 0.0, -0.173702785591, -0.144846455003, -14.0519174881, 0.0, 0.0, 0.0
38.5420589447, -0.198459079707, -0.17448177469, -14.1106573463, 0.0, 0.0, 0.0, -0.166524872104, -0.117349790055, -14.0549889184, 0.0, 0.0, 0.0
38.5922150612, -0.199215986238, -0.166555927953, -14.11267283, 0.0, 0.0, 0.0, -0.167714606003, -0.127428422338, -14.0454383071, 0.0, 0.0, 0.0
38.6423959732, -0.193754364658, -0.152548912611, -14.0970308935, 0.0, 0.0, 0.0, -0.163048531239, -0.114464732899, -14.0441641265, 0.0, 0.0, 0.0
38.6925671101, -0.196993407019, -0.144190422926, -14.0989547944, 0.0, 0.0, 0.0, -0.159806996146, -0.130999608965, -14.0319407168, 0.0, 0.0, 0.0
38.7427380085, -0.202182623709, -0.145792993816, -14.1106399724, 0.0, 0.0, 0.0, -0.159358993149, -0.108091577198, -14.0337885627, 0.0, 0.0, 0.0
38.792881012, -0.202541498827, -0.169613575614, -14.1130325766, 0.0, 0.0, 0.0, -0.156676212571, -0.140431045205, -14.0419012017, 0.0, 0.0, 0.0
38.8430380821, -0.200862613706, -0.164484867201, -14.1113864867, 0.0, 0.0, 0.0, -0.173176936009, -0.141577206998, -14.0372028469, 0.0, 0.0, 0.0
38.8931910992, -0.192405185439, -0.149816732764, -14.1132551673, 0.0, 0.0, 0.0, -0.17320629235, -0.153197110176, -14.0373565955, 0.0, 0.0, 0.0
38.9433350563, -0.195137060823, -0.15306119758, -14.1201984845, 0.0, 0.0, 0.0, -0.171980028178, -0.158844855302, -14.0376017312, 0.0, 0.0, 0.0
38.9934830666, -0.187297043868, -0.163497233823, -14.1030798409, 0.0, 0.0, 0.0, -0.166047556691, -0.129643431444, -14.0416207996, 0.0, 0.0, 0.0
39.0436069965, -0.187455540319, -0.163576794447, -14.1037581909, 0.0, 0.0, 0.0, -0.158877922926, -0.113950014972, -14.0559107624, 0.0, 0.0, 0.0
39.0937619209, -0.193205248183, -0.143512052706, -14.1082546237, 0.0, 0.0, 0.0, -0.160251197126, -0.124022944326, -14.0520137046, 0.0, 0.0, 0.0
39.1439139843, -0.210895420035, -0.127912903025, -14.1079242239, 0.0, 0.0, 0.0, -0.159522072998, -0.13029124764, -14.0629329097, 0.0, 0.0, 0.0
39.1940801144, -0.210209952654, -0.121703641058, -14.1033376623, 0.0, 0.0, 0.0, -0.167256147558, -0.12332998158, -14.0448261835, 0.0, 0.0, 0.0
39.2442729473, -0.206376538516, -0.126621256215, -14.0986442114, 0.0, 0.0, 0.0, -0.162743151889, -0.116932456492, -14.0343532581, 0.0, 0.0, 0.0
39.2944300175, -0.20199539128, -0.142001242806, -14.0950580143, 0.0, 0.0, 0.0, -0.167116831599, -0.124788401951, -14.0420255816, 0.0, 0.0, 0.0
39.344630003, -0.201874181105, -0.147011727602, -14.1065586184, 0.0, 0.0, 0.0, -0.167611260914, -0.121063678909, -14.0601021764, 0.0, 0.0, 0.0
39.3947789669, -0.203921598657, -0.148549514535, -14.1005085124, 0.0, 0.0, 0.0, -0.180284135023, -0.123562069285, -14.0490681036, 0.0, 0.0, 0.0
39.4449739456, -0.206264685509, -0.147394408066, -14.1178111048, 0.0, 0.0, 0.0, -0.172076319753, -0.136007397733, -14.0430747957, 0.0, 0.0, 0.0
39.4951341152, -0.200374085376, -0.148027675503, -14.1024305969, 0.0, 0.0, 0.0, -0.169008869617, -0.100650339658, -14.0520941394, 0.0, 0.0, 0.0
39.5452969074, -0.192782775575, -0.161108864398, -14.1113070762, 0.0, 0.0, 0.0, -0.164277834538, -0.0946082651295, -14.0498120253, 0.0, 0.0, 0.0
39.595566988, -0.193679455228, -0.162802109996, -14.1133675718, 0.0, 0.0, 0.0, -0.167667527386, -0.11780871102, -14.0435214414, 0.0, 0.0, 0.0
39.6457560062, -0.194293571678, -0.162457935376, -14.1111054042, 0.0, 0.0, 0.0, -0.169002076621, -0.115455306743, -14.048025984, 0.0, 0.0, 0.0
39.6959240437, -0.193005377496, -0.153143501297, -14.1119257811, 0.0, 0.0, 0.0, -0.16704343931, -0.136554599507, -14.0434182993, 0.0, 0.0, 0.0
39.7460939884, -0.196579909312, -0.157831912129, -14.1052271507, 0.0, 0.0, 0.0, -0.172548090125, -0.144384883347, -14.0365131314, 0.0, 0.0, 0.0
39.7962310314, -0.194074705676, -0.177544313482, -14.1060953592, 0.0, 0.0, 0.0, -0.177632434811, -0.158987605851, -14.0412452323, 0.0, 0.0, 0.0
39.8463680744, -0.20613702995, -0.158825792478, -14.1116639979, 0.0, 0.0, 0.0, -0.179384545015, -0.136789404731, -14.0399517951, 0.0, 0.0, 0.0
39.8965289593, -0.197613065723, -0.167548575446, -14.1072072782, 0.0, 0.0, 0.0, -0.180777692739, -0.122952288383, -14.0423700177, 0.0, 0.0, 0.0
39.9466309547, -0.192711211388, -0.165179333045, -14.0954999199, 0.0, 0.0, 0.0, -0.179469711009, -0.143475054543, -14.0463128358, 0.0, 0.0, 0.0
39.9967739582, -0.208581063839, -0.160343754709, -14.1002718428, 0.0, 0.0, 0.0, -0.175154658159, -0.158698870311, -14.0610112729, 0.0, 0.0, 0.0
40.0469660759, -0.209181260549, -0.152697401745, -14.0959361775, 0.0, 0.0, 0.0, -0.175109292911, -0.142808256053, -14.0567216864, 0.0, 0.0, 0.0
40.0971050262, -0.205309357659, -0.160264615252, -14.0982457286, 0.0, 0.0, 0.0, -0.167466733212, -0.127231195268, -14.0621863446, 0.0, 0.0, 0.0
40.1473069191, -0.201297515155, -0.15067047908, -14.0980750355, 0.0, 0.0, 0.0, -0.167043184458, -0.121574898888, -14.0521989224, 0.0, 0.0, 0.0
40.197480917, -0.203066616382, -0.152621863354, -14.1015329851, 0.0, 0.0, 0.0, -0.164706755732, -0.099617037712, -14.0456790363, 0.0, 0.0, 0.0
40.2476270199, -0.193455308402, -0.141363795237, -14.1054389475, 0.0, 0.0, 0.0, -0.170326197793, -0.108424161222, -14.0514806567, 0.0, 0.0, 0.0
40.2978451252, -0.202777528311, -0.134349345124, -14.1052970648, 0.0, 0.0, 0.0, -0.173723109587, -0.112577928204, -14.0431174211, 0.0, 0.0, 0.0
40.3482940197, -0.204238160043, -0.155816874015, -14.1021754573, 0.0, 0.0, 0.0, -0.172080857633, -0.123723747913, -14.0469695452, 0.0, 0.0, 0.0
40.3984339237, -0.20341426772, -0.125203193771, -14.0998265665, 0.0, 0.0, 0.0, -0.170752119599, -0.123216471597, -14.0376395915, 0.0, 0.0, 0.0
40.448898077, -0.20445766699, -0.126171294432, -14.1022004513, 0.0, 0.0, 0.0, -0.162729312585, -0.125876825437, -14.0220499312, 0.0, 0.0, 0.0
40.4993031025, -0.206568701873, -0.148493705745, -14.0955813238, 0.0, 0.0, 0.0, -0.167637679352, -0.14369686832, -14.029081126, 0.0, 0.0, 0.0
40.5494930744, -0.20724679673, -0.15648083384, -14.104717499, 0.0, 0.0, 0.0, -0.173401180772, -0.137239327622, -14.0432168662, 0.0, 0.0, 0.0
40.5996210575, -0.202844986667, -0.173643955692, -14.1069361783, 0.0, 0.0, 0.0, -0.173505069676, -0.120319126136, -14.0566557143, 0.0, 0.0, 0.0
40.6497569084, -0.196127876417, -0.172296013451, -14.1118012379, 0.0, 0.0, 0.0, -0.174033666082, -0.151096419389, -14.0553615264, 0.0, 0.0, 0.0
40.6999149323, -0.196448012599, -0.156094342966, -14.1057843998, 0.0, 0.0, 0.0, -0.169706867961, -0.155368646866, -14.062065794, 0.0, 0.0, 0.0
40.7500901222, -0.2006906048, -0.132926452244, -14.1065974971, 0.0, 0.0, 0.0, -0.171393674756, -0.132767681229, -14.0627716801, 0.0, 0.0, 0.0
40.8002889156, -0.201634843955, -0.128111166516, -14.1061439337, 0.0, 0.0, 0.0, -0.167826927337, -0.1306967459, -14.0543284944, 0.0, 0.0, 0.0
40.8504679203, -0.205137861769, -0.142592446984, -14.1220781889, 0.0, 0.0, 0.0, -0.174122589082, -0.148678707785, -14.0727549096, 0.0, 0.0, 0.0
40.900605917, -0.204250043542, -0.13824925472, -14.1200526289, 0.0, 0.0, 0.0, -0.168445680959, -0.139889033311, -14.0541448063, 0.0, 0.0, 0.0
40.9507451057, -0.195933633146, -0.145636279277, -14.1049597178, 0.0, 0.0, 0.0, -0.171510563429, -0.108746721021, -14.0612674116, 0.0, 0.0, 0.0
41.0008919239, -0.196009380122, -0.150614781356, -14.0982260442, 0.0, 0.0, 0.0, -0.163193334651, -0.118748912453, -14.0568224015, 0.0, 0.0, 0.0
41.0510361195, -0.204643223432, -0.148070110901, -14.095037102, 0.0, 0.0, 0.0, -0.164509486451, -0.114857916166, -14.0521337367, 0.0, 0.0, 0.0
41.101359129, -0.198826752117, -0.148645731158, -14.1061313957, 0.0, 0.0, 0.0, -0.163810439693, -0.13720459035, -14.0575835298, 0.0, 0.0, 0.0
41.1515440941, -0.197258544543, -0.145712291615, -14.1077942184, 0.0, 0.0, 0.0, -0.173731084832, -0.140803285293, -14.0488164935, 0.0, 0.0, 0.0
41.2017509937, -0.190801334067, -0.119267461069, -14.0968665414, 0.0, 0.0, 0.0, -0.174628486757, -0.144703751912, -14.0533191402, 0.0, 0.0, 0.0
41.2519259453, -0.185906232814, -0.140123532403, -14.1055263666, 0.0, 0.0, 0.0, -0.170591713376, -0.134036593803, -14.0546215846, 0.0, 0.0, 0.0
41.3021140099, -0.200155341242, -0.138555112138, -14.1035919655, 0.0, 0.0, 0.0, -0.171326076009, -0.145840177634, -14.0490522016, 0.0, 0.0, 0.0
41.3522701263, -0.200126943927, -0.139772993329, -14.1151107477, 0.0, 0.0, 0.0, -0.168768776389, -0.13702615254, -14.0504977735, 0.0, 0.0, 0.0
41.4024369717, -0.201776830794, -0.15432518851, -14.1120530953, 0.0, 0.0, 0.0, -0.168090261403, -0.152043189509, -14.048317621, 0.0, 0.0, 0.0
41.4525749683, -0.202707069572, -0.162341502217, -14.0994449296, 0.0, 0.0, 0.0, -0.168838159104, -0.143651217698, -14.0453382705, 0.0, 0.0, 0.0
41.5027360916, -0.196918721467, -0.155520848342, -14.0982278188, 0.0, 0.0, 0.0, -0.168026608644, -0.137632766751, -14.0470911724, 0.0, 0.0, 0.0
41.5528960228, -0.205695632363, -0.14798818887, -14.1035030034, 0.0, 0.0, 0.0, -0.168435214834, -0.135225722764, -14.0577663692, 0.0, 0.0, 0.0
41.6030790806, -0.200691502161, -0.145669872634, -14.1108038626, 0.0, 0.0, 0.0, -0.172143959545, -0.150511136192, -14.0568666174, 0.0, 0.0, 0.0
41.6532230377, -0.209788494546, -0.155458082493, -14.109910338, 0.0, 0.0, 0.0, -0.166882357826, -0.125949855581, -14.0575558812, 0.0, 0.0, 0.0
41.7033641338, -0.207948730593, -0.164515468908, -14.1308691793, 0.0, 0.0, 0.0, -0.166633537775, -0.146782223084, -14.0463325023, 0.0, 0.0, 0.0
41.7535951138, -0.21177197866, -0.160580510369, -14.129399256, 0.0, 0.0, 0.0, -0.171279378599, -0.156423188936, -14.0628250132, 0.0, 0.0, 0.0
41.8039491177, -0.21169498872, -0.151031492215, -14.1214357546, 0.0, 0.0, 0.0, -0.170673712487, -0.155510496361, -14.0533218167, 0.0, 0.0, 0.0
41.8541209698, -0.207523157398, -0.132015856558, -14.1183424612, 0.0, 0.0, 0.0, -0.172093501073, -0.134123964897, -14.0571351572, 0.0, 0.0, 0.0
41.9045610428, -0.202866707244, -0.149157729032, -14.113575315, 0.0, 0.0, 0.0, -0.166521269044, -0.133222343212, -14.0548953422, 0.0, 0.0, 0.0
