TIME, IMU1_gyr_x, IMU1_gyr_y, IMU1_gyr_z, IMU1_gyr_raw_x, IMU1_gyr_raw_y, IMU1_gyr_raw_z,IMU2_gyr_x, IMU2_gyr_y,IMU2_gyr_z, IMU2_gyr_raw_x, IMU2_gyr_raw_y, IMU2_gyr_raw_z2.14576721191e-06, 0.0, 0.0, 0.0, 0.0, 0.0, 0.0, 0.0, 0.0, 0.0, 0.0, 0.0, 0.0
0.0502350330353, 0.0, 0.0, 0.0, 0.0, 0.0, 0.0, 0.0, 0.0, 0.0, 0.0, 0.0, 0.0
0.100791215897, 1.41125, 1.16875, 0.00675, -3.22875, 4.55875, 0.77875, -0.0935, -0.81125, -0.1895, -0.3325, 1.12875, 0.2975
0.15105509758, 1.30625, 0.76625, 0.18175, -3.33375, 4.15625, 0.95375, 0.07275, -0.91625, -0.382, -0.16625, 1.02375, 0.105
0.2012591362, 1.32375, 0.8275, -0.0195, -3.31625, 4.2175, 0.7525, -0.18975, -0.79375, -0.4695, -0.42875, 1.14625, 0.0175
0.251435995102, 1.385, 1.0375, 0.103, -3.255, 4.4275, 0.875, 0.14275, -0.9425, -0.00575, -0.09625, 0.9975, 0.48125
0.301614046097, 1.0175, 0.8975, 0.05925, -3.6225, 4.2875, 0.83125, -0.31225, -0.855, -0.2945, -0.55125, 1.085, 0.1925
0.351812124252, 1.2275, 0.8275, 0.138, -3.4125, 4.2175, 0.91, -0.181, -0.925, -0.28575, -0.42, 1.015, 0.20125
0.402024030685, 1.41125, 0.55625, 0.1555, -3.22875, 3.94625, 0.9275, -0.391, -0.82875, 0.038, -0.63, 1.11125, 0.525
0.452392101288, 1.09625, 0.99375, -0.0195, -3.54375, 4.38375, 0.7525, -0.2335, -0.81125, -0.207, -0.4725, 1.12875, 0.28
0.502570152283, 1.2975, 0.76625, 0.09425, -3.3425, 4.15625, 0.86625, -0.24225, -0.8725, -0.21575, -0.48125, 1.0675, 0.27125
0.552748203278, 1.2275, 0.845, -0.177, -3.4125, 4.235, 0.595, 0.0815, -0.8375, -0.35575, -0.1575, 1.1025, 0.13125
0.602931022644, 1.2975, 1.09, -0.1245, -3.3425, 4.48, 0.6475, -0.06725, -0.925, -0.2945, -0.30625, 1.015, 0.1925
0.653136014938, 1.27125, 0.85375, -0.282, -3.36875, 4.24375, 0.49, -0.1985, -1.10875, -0.4345, -0.4375, 0.83125, 0.0525
0.703323125839, 1.21875, 0.845, -0.11575, -3.42125, 4.235, 0.65625, -0.20725, -0.93375, -0.2595, -0.44625, 1.00625, 0.2275
0.753551006317, 1.27125, 1.0025, -0.04575, -3.36875, 4.3925, 0.72625, -0.076, -0.82, -0.07575, -0.315, 1.12, 0.41125
0.803728103638, 1.28875, 0.9325, -0.13325, -3.35125, 4.3225, 0.63875, -0.27725, -0.70625, -0.1895, -0.51625, 1.23375, 0.2975
0.853939056396, 1.09625, 1.055, 0.05925, -3.54375, 4.445, 0.83125, -0.041, -0.86375, -0.172, -0.28, 1.07625, 0.315
0.904168128967, 1.14875, 1.06375, -0.15075, -3.49125, 4.45375, 0.62125, 0.0115, -0.77625, -0.382, -0.2275, 1.16375, 0.105
0.954372167587, 1.4725, 0.88, -0.02825, -3.1675, 4.27, 0.74375, 0.02025, -0.82875, -0.49575, -0.21875, 1.11125, -0.00875
1.0045800209, 1.1925, 1.04625, 0.1555, -3.4475, 4.43625, 0.9275, -0.22475, -0.95125, -0.19825, -0.46375, 0.98875, 0.28875
1.05476903915, 1.1575, 1.16, -0.037, -3.4825, 4.55, 0.735, -0.39975, -0.68875, -0.172, -0.63875, 1.25125, 0.315
1.10500121117, 1.04375, 1.02, 0.00675, -3.59625, 4.41, 0.77875, -0.24225, -0.9425, -0.30325, -0.48125, 0.9975, 0.18375
1.15522003174, 1.51625, 0.81875, -0.142, -3.12375, 4.20875, 0.63, -0.04975, -0.8725, -0.21575, -0.28875, 1.0675, 0.27125
1.20540714264, 1.35, 0.985, 0.1205, -3.29, 4.375, 0.8925, 0.03775, -0.81125, -0.21575, -0.20125, 1.12875, 0.27125
1.25568914413, 0.9125, 1.06375, -0.1945, -3.7275, 4.45375, 0.5775, 0.0465, -1.12625, -0.4345, -0.1925, 0.81375, 0.0525
1.3058590889, 1.18375, 0.97625, 0.21675, -3.45625, 4.36625, 0.98875, -0.17225, -0.89, -0.1895, -0.41125, 1.05, 0.2975
1.35605716705, 1.39375, 0.83625, -0.0545, -3.24625, 4.22625, 0.7175, 0.02025, -0.91625, -0.04075, -0.21875, 1.02375, 0.44625
1.40623807907, 1.20125, 0.915, 0.00675, -3.43875, 4.305, 0.77875, 0.0115, -0.95125, -0.452, -0.2275, 0.98875, 0.035
1.45641112328, 1.23625, 0.73125, 0.00675, -3.40375, 4.12125, 0.77875, -0.2335, -1.07375, -0.1895, -0.4725, 0.86625, 0.2975
1.50656414032, 1.35875, 0.90625, -0.11575, -3.28125, 4.29625, 0.65625, -0.22475, -0.6275, 0.02925, -0.46375, 1.3125, 0.51625
1.55674219131, 1.1925, 0.94125, -0.27325, -3.4475, 4.33125, 0.49875, -0.13725, -0.8025, -0.0145, -0.37625, 1.1375, 0.4725
1.60692811012, 1.3675, 0.88, -0.01075, -3.2725, 4.27, 0.76125, 0.09025, -1.10875, -0.23325, -0.14875, 0.83125, 0.25375
1.65711116791, 1.1925, 0.985, 0.09425, -3.4475, 4.375, 0.86625, -0.50475, -0.96875, -0.067, -0.74375, 0.97125, 0.42
1.70730519295, 1.42, 0.81875, -0.22075, -3.22, 4.20875, 0.55125, -0.11975, -1.03875, -0.2245, -0.35875, 0.90125, 0.2625
1.75748705864, 1.39375, 0.845, -0.1945, -3.3425, 3.92, 0.9975, -0.146, -0.9425, -0.137, -0.525, 1.085, 0.46375
1.80768704414, 1.245, 0.81875, -0.002, -3.395, 4.20875, 0.77, -0.1985, -0.8725, -2.61325, -0.4375, 1.0675, -2.12625
1.85789322853, 1.1925, 0.92375, -0.22075, -3.4475, 4.31375, 0.55125, 0.02025, -0.7675, -0.242, -0.21875, 1.1725, 0.245
1.90807819366, 1.46375, 0.99375, 0.103, -3.40375, 4.27, 0.735, -0.18975, -0.77625, -0.1545, -0.3325, 1.015, 0.28
1.95825505257, 1.28, 0.915, -0.25575, -3.36, 4.305, 0.51625, -0.216, -0.75, -0.14575, -0.455, 1.19, 0.34125
2.00842308998, 1.28, 1.06375, 0.033, -3.36, 4.45375, 0.805, 0.03775, -0.98625, -0.30325, -0.20125, 0.95375, 0.18375
2.05864405632, 1.21, 0.92375, 0.033, -3.43, 4.31375, 0.805, -0.111, -1.0125, -0.18075, -0.35, 0.9275, 0.30625
2.10884308815, 1.25375, 0.9325, -0.037, -3.38625, 4.3225, 0.735, -0.06725, -0.9425, -0.26825, -0.30625, 0.9975, 0.21875
2.15907120705, 1.2275, 0.87125, 0.068, -3.4125, 4.26125, 0.84, -0.20725, -0.925, -0.172, -0.44625, 1.015, 0.315
2.20924711227, 1.4725, 0.67875, -0.22075, -3.1675, 4.06875, 0.55125, 0.10775, -0.8725, 0.0555, -0.13125, 1.0675, 0.5425
2.25950813293, 1.1575, 0.8975, -0.002, -3.4825, 4.2875, 0.77, -0.29475, -0.995, -0.32075, -0.53375, 0.945, 0.16625
2.30969810486, 1.4375, 0.81875, 0.02425, -3.2025, 4.20875, 0.79625, 0.09025, -0.93375, -0.30325, -0.14875, 1.00625, 0.18375
2.35988807678, 1.0875, 0.94125, 0.0505, -3.5525, 4.33125, 0.8225, -0.20725, -0.9775, -0.347, -0.44625, 0.9625, 0.14
2.41002511978, 1.13125, 0.8975, 0.05925, -3.50875, 4.2875, 0.83125, -0.1635, -0.6975, -0.33825, -0.4025, 1.2425, 0.14875
2.46017313004, 1.28875, 1.055, -0.04575, -3.35125, 4.445, 0.72625, -0.076, -0.93375, -0.26825, -0.315, 1.00625, 0.21875
2.51035809517, 1.34125, 1.02, -0.0195, -3.29875, 4.41, 0.7525, -0.216, -1.0825, 0.003, -0.455, 0.8575, 0.49
2.56052017212, 1.42, 0.8275, 0.068, -3.22, 4.2175, 0.84, -0.251, -0.74125, -0.18075, -0.49, 1.19875, 0.30625
2.61071705818, 1.315, 1.1075, 0.033, -3.325, 4.4975, 0.805, -0.4085, -0.77625, -0.207, -0.6475, 1.16375, 0.28
2.66092014313, 1.06125, 0.915, 0.16425, -3.57875, 4.305, 0.93625, -0.111, -0.86375, -0.02325, -0.35, 1.07625, 0.46375
2.71119523048, 1.1575, 1.055, 0.0155, -3.4825, 4.445, 0.7875, -0.27725, -0.91625, -0.26825, -0.51625, 1.02375, 0.21875
2.76137304306, 1.28, 0.85375, -0.01075, -3.36, 4.24375, 0.76125, -0.146, -0.79375, -0.102, -0.385, 1.14625, 0.385
2.81153607368, 1.14, 0.95, 0.068, -3.5, 4.34, 0.84, -0.08475, -0.9775, -0.2945, -0.32375, 0.9625, 0.1925
2.86172604561, 1.21, 1.1075, 0.2955, -3.43, 4.4975, 1.0675, 0.05525, -1.0125, -0.137, -0.18375, 0.9275, 0.35
2.91187620163, 1.37625, 0.8275, 0.0505, -3.26375, 4.2175, 0.8225, 0.029, -0.98625, -0.26825, -0.21, 0.95375, 0.21875
2.96204805374, 1.37625, 0.73125, -0.1245, -3.26375, 4.12125, 0.6475, -0.06725, -0.58375, 0.06425, -0.30625, 1.35625, 0.55125
3.01223421097, 1.1575, 0.8975, -0.01075, -3.4825, 4.2875, 0.76125, -0.18975, -0.8725, -0.1895, -0.42875, 1.0675, 0.2975
3.06242918968, 1.27125, 0.8625, -0.09825, -3.36875, 4.2525, 0.67375, -0.251, -0.98625, -0.16325, -0.49, 0.95375, 0.32375
3.1126101017, 1.28875, 0.775, 0.07675, -3.35125, 4.165, 0.84875, -0.3385, -0.82875, -0.2245, -0.5775, 1.11125, 0.2625
3.16278004646, 1.4375, 1.0025, -0.072, -3.2025, 4.3925, 0.7, -0.0235, -0.93375, -0.2245, -0.2625, 1.00625, 0.2625
3.21298909187, 1.35875, 0.8275, -0.13325, -3.28125, 4.2175, 0.63875, -0.11975, -0.925, -0.242, -0.35875, 1.015, 0.245
3.26316714287, 1.11375, 0.9675, 0.04175, -3.52625, 4.3575, 0.81375, -0.13725, -0.8375, -0.09325, -0.37625, 1.1025, 0.39375
3.31332015991, 1.32375, 0.97625, 0.19925, -3.31625, 4.36625, 0.97125, -0.29475, -1.05625, -0.28575, -0.53375, 0.88375, 0.20125
3.36347818375, 1.105, 1.055, -0.1245, -3.535, 4.445, 0.6475, 0.07275, -0.75875, -0.49575, -0.16625, 1.18125, -0.00875
3.413626194, 1.16625, 0.88875, 0.07675, -3.47375, 4.27875, 0.84875, 0.0465, -0.995, -0.40825, -0.1925, 0.945, 0.07875
3.46387720108, 1.27125, 1.15125, -0.09825, -3.36875, 4.54125, 0.67375, -0.1985, -0.9775, -0.19825, -0.4375, 0.9625, 0.28875
3.51408219337, 1.035, 0.64375, 0.00675, -3.605, 4.03375, 0.77875, 0.09025, -1.03875, -0.207, -0.14875, 0.90125, 0.28
3.56432914734, 1.27125, 0.7225, -0.01075, -3.36875, 4.1125, 0.76125, -0.1285, -0.65375, -0.04075, -0.3675, 1.28625, 0.44625
3.61446499825, 1.385, 0.7225, 0.09425, -3.255, 4.1125, 0.86625, -0.111, -1.03, -0.277, -0.35, 0.91, 0.21
3.6646270752, 1.35, 1.125, -0.01075, -3.29, 4.515, 0.76125, -0.356, -0.925, -0.3295, -0.595, 1.015, 0.1575
3.71478915215, 1.18375, 1.1075, -0.0895, -3.45625, 4.4975, 0.6825, -0.11975, -0.74125, -0.242, -0.35875, 1.19875, 0.245
3.76499319077, 1.02625, 1.02, 0.138, -3.61375, 4.41, 0.91, -0.22475, -0.785, -0.242, -0.46375, 1.155, 0.245
3.81515216827, 1.06125, 0.99375, -0.04575, -3.57875, 4.38375, 0.72625, -0.286, -0.9075, -0.26825, -0.525, 1.0325, 0.21875
3.86533617973, 1.30625, 0.94125, 0.11175, -3.33375, 4.33125, 0.88375, -0.25975, -1.03, -0.0495, -0.49875, 0.91, 0.4375
3.91552400589, 0.97375, 1.02, 0.16425, -3.66625, 4.41, 0.93625, -0.17225, -0.995, -0.26825, -0.41125, 0.945, 0.21875
3.96568608284, 1.16625, 1.055, -0.0895, -3.47375, 4.445, 0.6825, 0.10775, -0.65375, -0.2245, -0.13125, 1.28625, 0.2625
4.01582717896, 1.32375, 0.7225, 0.02425, -3.31625, 4.1125, 0.79625, -0.041, -0.855, -0.207, -0.28, 1.085, 0.28
4.06601405144, 1.37625, 0.7225, 0.138, -3.26375, 4.1125, 0.91, -0.2335, -0.74125, -0.39075, -0.4725, 1.19875, 0.09625
4.11618518829, 1.2625, 1.0025, 0.00675, -3.3775, 4.3925, 0.77875, -0.31225, -0.77625, -0.25075, -0.55125, 1.16375, 0.23625
4.1664659977, 1.30625, 1.01125, 0.2955, -3.33375, 4.40125, 1.0675, -0.25975, -0.82, -0.32075, -0.49875, 1.12, 0.16625
4.2168700695, 1.25375, 0.50375, 0.173, -3.50875, 4.1475, 0.84, 0.169, -0.995, -0.4695, -0.07, 0.945, 0.0175
4.26807999611, 1.16625, 1.02875, -0.16825, -3.47375, 4.41875, 0.60375, -0.0585, -1.00375, -0.1895, -0.2975, 0.93625, 0.2975
4.31835913658, 1.2975, 0.67, -0.02825, -3.3425, 4.06, 0.74375, -0.15475, -0.75, -0.2595, -0.39375, 1.19, 0.2275
4.36868810654, 1.30625, 0.7575, 0.11175, -3.33375, 4.1475, 0.88375, -0.32975, -0.6625, 0.073, -0.56875, 1.2775, 0.56
4.41891407967, 1.49875, 0.81875, -0.0895, -3.14125, 4.20875, 0.6825, -0.06725, -1.00375, -0.47825, -0.30625, 0.93625, 0.00875
4.46907901764, 1.14, 1.2125, -0.072, -3.5, 4.6025, 0.7, -0.216, -0.79375, -0.44325, -0.455, 1.14625, 0.04375
4.51925706863, 1.21, 0.69625, 0.033, -3.43, 4.08625, 0.805, -0.15475, -0.785, -0.14575, -0.39375, 1.155, 0.34125
4.56947922707, 1.1225, 0.915, 0.1905, -3.5175, 4.305, 0.9625, -0.31225, -0.82875, 0.143, -0.55125, 1.11125, 0.63
4.61968207359, 1.315, 1.02, -0.0545, -3.325, 4.41, 0.7175, -0.076, -0.82875, -0.18075, -0.315, 1.11125, 0.30625
4.66985011101, 0.9125, 1.23, -0.177, -3.7275, 4.62, 0.595, -0.08475, -0.7675, -0.30325, -0.32375, 1.1725, 0.18375
4.72008419037, 1.06125, 0.8625, -0.02825, -3.57875, 4.2525, 0.74375, -0.01475, -0.88125, -0.207, -0.25375, 1.05875, 0.28
4.77025604248, 1.1575, 0.985, -0.13325, -3.4825, 4.375, 0.63875, 0.12525, -0.65375, -0.277, -0.11375, 1.28625, 0.21
4.8204190731, 1.1925, 0.635, -0.0195, -3.4475, 4.025, 0.7525, -0.2685, -0.82875, 0.11675, -0.5075, 1.11125, 0.60375
4.8706099987, 1.21, 0.95875, -0.072, -3.43, 4.34875, 0.7, -0.32975, -0.9425, -0.3295, -0.56875, 0.9975, 0.1575
4.92077207565, 1.2625, 0.81, -0.037, -3.3775, 4.2, 0.735, -0.13725, -0.82875, -0.18075, -0.37625, 1.11125, 0.30625
4.97100019455, 1.16625, 0.74875, -0.1245, -3.47375, 4.13875, 0.6475, -0.32975, -0.75875, 0.0555, -0.56875, 1.18125, 0.5425
5.02119803429, 1.07, 0.69625, -0.142, -3.57, 4.08625, 0.63, -0.10225, -0.8375, -0.207, -0.34125, 1.1025, 0.28
5.07136106491, 1.175, 0.88, -0.04575, -3.465, 4.27, 0.72625, 0.02025, -0.6975, -0.172, -0.21875, 1.2425, 0.315
5.12160015106, 1.42875, 0.97625, 0.05925, -3.21125, 4.36625, 0.83125, -0.181, -0.75875, -0.312, -0.42, 1.18125, 0.175
5.17172002792, 1.28875, 0.9325, 0.138, -3.35125, 4.3225, 0.91, -0.1985, -1.00375, -0.312, -0.4375, 0.93625, 0.175
5.22189211845, 1.23625, 0.74, 0.11175, -3.40375, 4.13, 0.88375, 0.14275, -0.88125, 0.178, -0.09625, 1.05875, 0.665
5.27209806442, 1.14875, 1.09875, -0.06325, -3.49125, 4.48875, 0.70875, -0.0235, -0.61875, -0.11075, -0.2625, 1.32125, 0.37625
5.32235908508, 1.32375, 0.80125, -0.04575, -3.31625, 4.19125, 0.72625, -0.08475, -0.6975, -0.21575, -0.32375, 1.2425, 0.27125
5.37258219719, 1.4025, 0.9325, -0.037, -3.2375, 4.3225, 0.735, -0.2685, -0.75, -0.1195, -0.5075, 1.19, 0.3675
5.42275214195, 1.455, 0.74875, -0.13325, -3.185, 4.13875, 0.63875, 0.00275, -0.6275, -0.1895, -0.23625, 1.3125, 0.2975
5.4729590416, 1.0525, 1.055, 0.0505, -3.5875, 4.445, 0.8225, -0.20725, -0.72375, -0.4695, -0.44625, 1.21625, 0.0175
5.5231192112, 1.30625, 0.78375, -0.06325, -3.33375, 4.17375, 0.70875, -0.216, -0.7675, -0.2595, -0.455, 1.1725, 0.2275
5.57336211205, 1.35, 0.74875, -0.1945, -3.29, 4.13875, 0.5775, -0.006, -0.8725, 0.01175, -0.245, 1.0675, 0.49875
5.62359118462, 1.2275, 0.81875, -0.002, -3.4125, 4.20875, 0.77, -0.25975, -0.6975, -0.46075, -0.49875, 1.2425, 0.02625
5.67378020287, 1.18375, 0.74875, -0.13325, -3.45625, 4.13875, 0.63875, 0.029, -0.82875, -0.382, -0.21, 1.11125, 0.105
5.7239420414, 1.14875, 0.9675, -0.04575, -3.49125, 4.3575, 0.72625, -0.3035, -0.6625, -0.33825, -0.5425, 1.2775, 0.14875
5.77419519424, 1.28875, 0.78375, 0.11175, -3.35125, 4.17375, 0.88375, -0.17225, -0.82, -0.19825, -0.41125, 1.12, 0.28875
5.82436203957, 1.14, 0.95, 0.05925, -3.5, 4.34, 0.83125, 0.029, -1.03875, -0.14575, -0.21, 0.90125, 0.34125
5.87462210655, 1.25375, 0.9325, -0.0545, -3.38625, 4.3225, 0.7175, -0.0585, -0.7325, -0.12825, -0.2975, 1.2075, 0.35875
5.92486405373, 1.14, 1.04625, 0.1205, -3.5, 4.43625, 0.8925, -0.18975, -0.67125, -0.3995, -0.42875, 1.26875, 0.0875
5.9750931263, 1.20125, 0.7575, -0.002, -3.43875, 4.1475, 0.77, 0.0465, -0.925, -0.2245, -0.1925, 1.015, 0.2625
6.02526211739, 1.37625, 0.9325, -0.02825, -3.26375, 4.3225, 0.74375, -0.22475, -0.65375, -0.28575, -0.46375, 1.28625, 0.20125
6.07546615601, 1.34125, 0.7925, -0.142, -3.29875, 4.1825, 0.63, 0.02025, -0.8025, -0.28575, -0.21875, 1.1375, 0.20125
6.12561607361, 1.37625, 1.06375, -0.072, -3.26375, 4.45375, 0.7, -0.04975, -0.995, -0.2595, -0.28875, 0.945, 0.2275
6.17579722404, 1.25375, 1.0025, -0.18575, -3.38625, 4.3925, 0.58625, -0.0585, -0.88125, -0.347, -0.2975, 1.05875, 0.14
6.22597813606, 1.20125, 1.02, -0.072, -3.43875, 4.41, 0.7, -0.06725, -0.7675, 0.143, -0.30625, 1.1725, 0.63
6.27632403374, 1.1575, 0.9675, -0.20325, -3.40375, 4.10375, 0.945, -0.10225, -0.855, -0.23325, -0.34125, 1.085, 0.25375
6.3276591301, 1.3675, 0.57375, -0.22075, -3.2725, 3.96375, 0.55125, 0.02025, -0.65375, -0.382, -0.21875, 1.28625, 0.105
6.37787413597, 1.5075, 0.76625, -0.037, -3.1325, 4.15625, 0.735, 0.07275, -0.8725, -0.33825, -0.16625, 1.0675, 0.14875
6.42812299728, 1.20125, 1.1775, 0.02425, -3.43875, 4.5675, 0.79625, -0.15475, -0.89875, -0.21575, -0.39375, 1.04125, 0.27125
6.47837209702, 1.34125, 0.7225, -0.04575, -3.29875, 4.1125, 0.72625, -0.10225, -0.68875, -0.207, -0.34125, 1.25125, 0.28
6.52855420113, 0.92125, 0.9325, 0.04175, -3.71875, 4.3225, 0.81375, 0.1165, -0.8375, -0.07575, -0.1225, 1.1025, 0.41125
6.57879018784, 0.9825, 0.74, 0.11175, -3.6575, 4.13, 0.88375, -0.461, -0.82875, 0.143, -0.7, 1.11125, 0.63
6.62893199921, 1.2275, 0.66125, 0.138, -3.4125, 4.05125, 0.91, -0.321, -0.9425, -0.137, -0.56, 0.9975, 0.35
6.6791100502, 1.11375, 0.88, -0.11575, -3.52625, 4.27, 0.65625, -0.06725, -0.81125, -0.26825, -0.30625, 1.12875, 0.21875
6.72927618027, 1.25375, 0.915, 0.068, -3.38625, 4.305, 0.84, 0.09025, -0.86375, -2.5695, -0.14875, 1.07625, -2.0825
6.77944517136, 1.1575, 1.11625, -0.13325, -3.4825, 4.50625, 0.63875, 0.14275, -0.89, -0.25075, -0.09625, 1.05, 0.23625
6.82960820198, 1.1225, 0.985, -0.06325, -3.5175, 4.375, 0.70875, -0.006, -1.1, -0.00575, -0.245, 0.84, 0.48125
6.87980318069, 1.07875, 0.95875, -0.08075, -3.56125, 4.34875, 0.69125, -0.0585, -1.14375, -0.23325, -0.2975, 0.79625, 0.25375
6.93002009392, 0.9125, 0.99375, -0.002, -3.7275, 4.38375, 0.77, -0.20725, -0.89, -0.23325, -0.44625, 1.05, 0.25375
6.98019218445, 1.06125, 0.90625, -0.0195, -3.57875, 4.29625, 0.7525, -0.41725, -0.86375, -0.0845, -0.65625, 1.07625, 0.4025
7.03039908409, 1.27125, 0.80125, 0.11175, -3.36875, 4.19125, 0.88375, -0.2685, -0.77625, 0.04675, -0.5075, 1.16375, 0.53375
7.08060121536, 1.09625, 0.985, 0.14675, -3.54375, 4.375, 0.91875, -0.181, -0.925, -0.05825, -0.42, 1.015, 0.42875
7.13079118729, 1.09625, 0.69625, -0.0545, -3.54375, 4.08625, 0.7175, -0.01475, -0.82875, -0.3645, -0.25375, 1.11125, 0.1225
7.18102908134, 1.00875, 0.8275, -0.1595, -3.63125, 4.2175, 0.6125, -0.15475, -0.86375, -0.05825, -0.39375, 1.07625, 0.42875
7.23122000694, 1.14875, 1.055, 0.138, -3.49125, 4.445, 0.91, -0.286, -0.82, -0.102, -0.525, 1.12, 0.385
7.28185510635, 1.11375, 0.985, 0.0505, -3.52625, 4.375, 0.8225, -0.321, -0.98625, -0.19825, -0.56, 0.95375, 0.28875
7.33201622963, 1.35875, 0.81, -0.02825, -3.28125, 4.2, 0.74375, -0.11975, -0.81125, -0.23325, -0.35875, 1.12875, 0.25375
7.38217115402, 1.4725, 0.9675, 0.1555, -3.1675, 4.3575, 0.9275, -0.11975, -1.0825, -0.417, -0.35875, 0.8575, 0.07
7.43235516548, 1.175, 0.775, 0.14675, -3.465, 4.165, 0.91875, -0.251, -0.925, -0.207, -0.49, 1.015, 0.28
7.4825720787, 1.105, 0.845, -0.06325, -3.535, 4.235, 0.70875, -0.36475, -0.65375, -0.33825, -0.60375, 1.28625, 0.14875
7.53274917603, 1.175, 0.83625, 0.1555, -3.465, 4.22625, 0.9275, 0.03775, -1.03875, -0.09325, -0.20125, 0.90125, 0.39375
7.58291316032, 1.1925, 0.85375, 0.068, -3.4475, 4.24375, 0.84, 0.02025, -1.03875, 0.0205, -0.21875, 0.90125, 0.5075
7.63306808472, 1.42, 0.80125, -0.02825, -3.22, 4.19125, 0.74375, -0.3035, -0.82875, -0.2945, -0.5425, 1.11125, 0.1925
7.6832690239, 1.21875, 1.055, 0.07675, -3.42125, 4.445, 0.84875, -0.0235, -0.84625, -0.277, -0.2625, 1.09375, 0.21
7.7335062027, 1.21875, 0.78375, -0.1595, -3.42125, 4.17375, 0.6125, -0.17225, -0.93375, -0.14575, -0.41125, 1.00625, 0.34125
7.7836971283, 1.315, 1.02875, -0.142, -3.325, 4.41875, 0.63, -0.251, -0.82875, -0.137, -0.49, 1.11125, 0.35
7.83386802673, 1.23625, 1.23, -0.13325, -3.40375, 4.62, 0.63875, -0.0585, -1.1175, -0.172, -0.2975, 0.8225, 0.315
7.88407707214, 1.25375, 0.99375, -0.06325, -3.38625, 4.38375, 0.70875, -0.20725, -0.91625, -0.07575, -0.44625, 1.02375, 0.41125
7.934248209, 1.48125, 0.52125, 0.02425, -3.15875, 3.91125, 0.79625, 0.02025, -1.1, -0.3295, -0.21875, 0.84, 0.1575
7.98449516296, 1.39375, 0.87125, -0.177, -3.24625, 4.26125, 0.595, -0.06725, -0.88125, -0.28575, -0.30625, 1.05875, 0.20125
8.03481721878, 1.28875, 0.88875, -0.1245, -3.35125, 4.27875, 0.6475, -0.13725, -0.81125, -0.39075, -0.37625, 1.12875, 0.09625
8.08504915237, 1.35, 1.02875, 0.068, -3.29, 4.41875, 0.84, -0.4085, -0.8725, -0.32075, -0.6475, 1.0675, 0.16625
8.13521909714, 1.2625, 0.705, -0.002, -3.3775, 4.095, 0.77, -0.1635, -1.135, -0.23325, -0.4025, 0.805, 0.25375
8.18540215492, 1.0525, 0.88875, -0.072, -3.5875, 4.27875, 0.7, -0.10225, -0.95125, -0.23325, -0.34125, 0.98875, 0.25375
8.23555803299, 1.21875, 0.95, -0.002, -3.42125, 4.34, 0.77, 0.03775, -1.31, -0.11075, -0.20125, 0.63, 0.37625
8.28588414192, 1.21875, 1.09875, -0.09825, -3.28125, 4.27875, 0.77, -0.1985, -0.7675, -0.2945, -0.28, 0.84, 0.385
8.33611607552, 1.2975, 0.915, -0.08075, -3.3425, 4.305, 0.69125, -0.1285, -0.9075, -0.067, -0.3675, 1.0325, 0.42
8.38630318642, 1.3325, 1.1075, -0.107, -3.3075, 4.4975, 0.665, -0.24225, -0.82875, -0.18075, -0.48125, 1.11125, 0.30625
8.4364771843, 1.245, 0.81875, -0.02825, -3.395, 4.20875, 0.74375, -0.2685, -0.84625, -0.26825, -0.5075, 1.09375, 0.21875
8.48682022095, 1.32375, 1.23875, 0.103, -3.31625, 4.62875, 0.875, -0.251, -0.8025, -0.1195, -0.49, 1.1375, 0.3675
8.53703808784, 1.28875, 0.99375, -0.0195, -3.35125, 4.38375, 0.7525, -0.0935, -0.84625, -0.21575, -0.3325, 1.09375, 0.27125
8.58729600906, 1.09625, 0.83625, 0.1905, -3.54375, 4.22625, 0.9625, 0.03775, -0.68, -0.32075, -0.20125, 1.26, 0.16625
8.63750100136, 1.1925, 1.1075, 0.1205, -3.4475, 4.4975, 0.8925, -0.18975, -1.0125, -0.26825, -0.42875, 0.9275, 0.21875
8.68765306473, 1.35875, 0.8275, 0.07675, -3.28125, 4.2175, 0.84875, -0.20725, -0.785, -0.14575, -0.44625, 1.155, 0.34125
8.7378821373, 1.41125, 0.845, 0.1205, -3.22875, 4.235, 0.8925, -0.041, -0.79375, -0.14575, -0.28, 1.14625, 0.34125
8.78808021545, 1.315, 0.8275, 0.14675, -3.325, 4.2175, 0.91875, 0.0465, -0.88125, -0.102, -0.1925, 1.05875, 0.385
8.83823204041, 1.2625, 0.88, -0.002, -3.3775, 4.27, 0.77, -0.13725, -0.855, -0.102, -0.37625, 1.085, 0.385
8.88841104507, 1.105, 1.4225, 0.00675, -3.56125, 4.43625, 0.70875, -0.5835, -0.9425, -0.28575, -0.56, 0.9625, 0.07875
8.93872618675, 1.28, 1.01125, -0.02825, -3.36, 4.40125, 0.74375, -0.006, -0.82875, -0.37325, -0.245, 1.11125, 0.11375
8.98918008804, 1.27125, 1.01125, 0.14675, -3.36875, 4.40125, 0.91875, -0.20725, -1.07375, -0.42575, -0.44625, 0.86625, 0.06125
9.03951621056, 0.99125, 1.055, 0.09425, -3.605, 4.17375, 0.63875, -0.2685, -0.70625, -0.172, -0.2625, 1.05, 0.23625
9.08973622322, 1.1575, 0.95875, 0.033, -3.4825, 4.34875, 0.805, 0.03775, -0.8375, -0.19825, -0.20125, 1.1025, 0.28875
9.13994121552, 1.30625, 0.90625, -0.002, -3.33375, 4.29625, 0.77, 0.0465, -0.79375, 0.1255, -0.1925, 1.14625, 0.6125
9.19012308121, 1.28875, 1.16, -0.25575, -3.35125, 4.55, 0.51625, 0.0115, -0.88125, -0.172, -0.2275, 1.05875, 0.315
9.24027919769, 1.16625, 0.87125, 0.02425, -3.47375, 4.26125, 0.79625, -0.06725, -0.86375, -0.242, -0.30625, 1.07625, 0.245
9.29043722153, 1.2975, 0.92375, -0.11575, -3.3425, 4.31375, 0.65625, 0.09025, -1.07375, -0.207, -0.14875, 0.86625, 0.28
9.34075403214, 1.07875, 0.8275, -0.02825, -3.56125, 4.2175, 0.74375, 0.14275, -0.7675, -0.172, -0.09625, 1.1725, 0.315
9.39097619057, 1.07, 0.8275, -0.142, -3.57, 4.2175, 0.63, 0.099, -0.645, -0.09325, -0.42, 1.26, 0.48125
9.44135904312, 1.07, 0.915, -0.01075, -3.57, 4.305, 0.76125, -0.0935, -0.9075, -0.33825, -0.3325, 1.0325, 0.14875
9.49151110649, 1.16625, 0.775, -0.01075, -3.47375, 4.165, 0.76125, -0.111, -0.9075, -0.3295, -0.35, 1.0325, 0.1575
9.54167413712, 1.1225, 0.99375, 0.0155, -3.5175, 4.38375, 0.7875, -0.041, -0.89875, -0.35575, -0.28, 1.04125, 0.13125
9.59182620049, 1.34125, 0.69625, -0.04575, -3.29875, 4.08625, 0.72625, -0.3035, -0.75875, -0.242, -0.5425, 1.18125, 0.245
9.6419711113, 0.9825, 0.7925, 0.16425, -3.6575, 4.1825, 0.93625, -0.08475, -1.1, -0.28575, -0.32375, 0.84, 0.20125
9.69214606285, 1.175, 0.8625, -0.22075, -3.465, 4.2525, 0.55125, -0.20725, -0.96875, -0.44325, -0.44625, 0.97125, 0.04375
9.74233007431, 1.21, 0.88, 0.11175, -3.43, 4.27, 0.88375, -0.18975, -0.89, -0.21575, -0.42875, 1.05, 0.27125
9.79250407219, 0.92125, 0.90625, -0.02825, -3.71875, 4.29625, 0.74375, 0.14275, -0.89, -0.18075, -0.09625, 1.05, 0.30625
9.84270215034, 0.95625, 1.1075, 0.138, -3.68375, 4.4975, 0.91, -0.04975, -0.93375, -0.3995, -0.28875, 1.00625, 0.0875
9.89287400246, 1.42875, 0.9325, 0.1205, -3.21125, 4.3225, 0.8925, -0.1285, -0.8375, 0.0205, -0.3675, 1.1025, 0.5075
9.94308805466, 1.455, 1.04625, -0.0195, -3.185, 4.43625, 0.7525, -0.10225, -0.8025, 0.073, -0.34125, 1.1375, 0.56
9.99324822426, 1.1225, 0.87125, 0.033, -3.5175, 4.26125, 0.805, -0.11975, -0.575, -0.23325, -0.35875, 1.365, 0.25375
10.0434141159, 1.41125, 1.0375, 0.1555, -3.15875, 4.3225, 0.84, -0.041, -0.95125, -0.0845, -0.27125, 1.25125, 0.35
10.0935611725, 1.315, 0.78375, 0.208, -3.325, 4.17375, 0.98, -0.2685, -0.9775, -0.33825, -0.5075, 0.9625, 0.14875
10.1437101364, 1.0525, 0.71375, -0.16825, -3.5875, 4.10375, 0.60375, -0.17225, -1.0125, -0.137, -0.41125, 0.9275, 0.35
10.193898201, 1.32375, 0.78375, -0.02825, -3.31625, 4.17375, 0.74375, -0.181, -0.93375, -0.16325, -0.42, 1.00625, 0.32375
10.2440421581, 1.07, 1.055, -0.282, -3.57, 4.445, 0.49, -0.0235, -0.89875, -0.382, -0.2625, 1.04125, 0.105
10.2942352295, 1.0875, 1.0375, 0.0155, -3.5525, 4.4275, 0.7875, 0.00275, -0.89, -0.42575, -0.23625, 1.05, 0.06125
10.3443870544, 1.25375, 0.9675, -0.037, -3.38625, 4.3575, 0.735, -0.15475, -0.98625, -0.11075, -0.39375, 0.95375, 0.37625
10.3945372105, 1.385, 0.74875, 0.0155, -3.255, 4.13875, 0.7875, -0.146, -0.925, -0.42575, -0.385, 1.015, 0.06125
10.4447181225, 1.105, 1.1425, 0.19925, -3.535, 4.5325, 0.97125, -0.01475, -0.855, 0.038, -0.25375, 1.085, 0.525
10.4949531555, 1.1925, 0.83625, 0.0505, -3.4475, 4.22625, 0.8225, -0.15475, -0.9775, -0.1195, -0.39375, 0.9625, 0.3675
10.5451772213, 1.20125, 0.8625, -0.037, -3.43875, 4.2525, 0.735, 0.17775, -0.81125, -0.3645, -0.06125, 1.12875, 0.1225
10.5954391956, 1.21, 0.88, 0.138, -3.43, 4.27, 0.91, -0.15475, -0.6275, -0.35575, -0.39375, 1.3125, 0.13125
10.6456282139, 1.2625, 0.97625, 0.00675, -3.3775, 4.36625, 0.77875, -0.41725, -0.715, -0.032, -0.65625, 1.225, 0.455
10.6957950592, 1.315, 0.95, -0.0545, -3.325, 4.34, 0.7175, -0.1635, -1.03, -0.1195, -0.4025, 0.91, 0.3675
10.7459490299, 1.16625, 0.6, -0.247, -3.47375, 3.99, 0.525, -0.216, -0.7325, -0.35575, -0.455, 1.2075, 0.13125
10.796143055, 1.28, 0.64375, 0.0505, -3.36, 4.03375, 0.8225, 0.0815, -0.89, -0.00575, -0.1575, 1.05, 0.48125
10.8462901115, 1.25375, 0.73125, -0.06325, -3.38625, 4.12125, 0.70875, -0.38225, -0.8725, -0.242, -0.62125, 1.0675, 0.245
10.8964672089, 1.09625, 0.94125, -0.0895, -3.54375, 4.33125, 0.6825, -0.1635, -1.07375, -0.28575, -0.4025, 0.86625, 0.20125
10.9466450214, 1.42, 0.80125, 0.0155, -3.22, 4.19125, 0.7875, -0.0585, -0.96875, 0.02925, -0.2975, 0.97125, 0.51625
10.9968202114, 1.28, 0.92375, -0.09825, -3.36, 4.31375, 0.67375, -0.041, -0.98625, -0.417, -0.28, 0.95375, 0.07
11.0470480919, 1.27125, 0.915, -0.1945, -3.36875, 4.305, 0.5775, -0.041, -0.70625, -0.1545, -0.28, 1.23375, 0.3325
11.0972681046, 1.13125, 0.845, -0.177, -3.50875, 4.235, 0.595, -0.1285, -0.7675, -0.137, -0.3675, 1.1725, 0.35
11.1474711895, 1.32375, 0.71375, -0.0195, -3.31625, 4.10375, 0.7525, -0.0935, -0.65375, -0.25075, -0.3325, 1.28625, 0.23625
11.1976621151, 1.2625, 0.59125, 0.0155, -3.3775, 3.98125, 0.7875, -0.11975, -0.75875, -0.23325, -0.35875, 1.18125, 0.25375
11.247811079, 1.315, 0.62625, -0.002, -3.325, 4.01625, 0.77, -0.06725, -0.75, -0.207, -0.30625, 1.19, 0.28
11.2982401848, 1.35875, 0.8975, 0.103, -3.28125, 4.2875, 0.875, -0.286, -0.68, -0.067, -0.525, 1.26, 0.42
11.3499112129, 1.2275, 1.1075, -0.0545, -3.4125, 4.4975, 0.7175, -0.01475, -0.95125, -0.23325, -0.25375, 0.98875, 0.25375
11.4001510143, 1.3675, 0.94125, -0.0895, -3.2725, 4.33125, 0.6825, -0.041, -0.79375, -0.11075, -0.28, 1.14625, 0.37625
11.4503350258, 1.2975, 0.985, 0.00675, -3.3425, 4.375, 0.77875, -0.181, -0.8375, -0.4695, -0.42, 1.1025, 0.0175
11.5005152225, 1.16625, 0.97625, -0.037, -3.47375, 4.36625, 0.735, -0.0935, -0.9775, -0.3295, -0.3325, 0.9625, 0.1575
11.550727129, 1.2625, 1.02875, -0.037, -3.3775, 4.41875, 0.735, -0.1635, -0.9075, -0.277, -0.4025, 1.0325, 0.21
11.601211071, 1.23625, 1.0375, -0.0545, -3.29, 4.3925, 0.7175, -0.461, -0.77625, -0.242, -0.7, 1.16375, 0.245
11.6518161297, 1.18375, 0.88875, -0.02825, -3.45625, 4.27875, 0.74375, -0.1285, -1.10875, -0.09325, -0.3675, 0.83125, 0.39375
11.7019970417, 1.35875, 0.64375, -0.08075, -3.28125, 4.03375, 0.69125, -0.391, -0.8725, -0.28575, -0.63, 1.0675, 0.20125
11.7521731853, 1.2275, 0.59125, -0.08075, -3.4125, 3.98125, 0.69125, -0.251, -0.72375, -0.42575, -0.49, 1.21625, 0.06125
11.8023490906, 1.14, 1.09875, 0.09425, -3.5, 4.48875, 0.86625, 0.02025, -0.925, 0.003, -0.21875, 1.015, 0.49
11.8525261879, 1.2625, 0.83625, 0.23425, -3.3775, 4.22625, 1.00625, -0.4785, -1.03875, -0.12825, -0.7175, 0.90125, 0.35875
11.9027662277, 1.13125, 0.8275, -0.01075, -3.50875, 4.2175, 0.76125, -0.181, -0.8025, 0.04675, -0.42, 1.1375, 0.53375
11.9529240131, 1.1575, 0.775, 0.103, -3.4825, 4.165, 0.875, 0.029, -0.7675, -0.09325, -0.21, 1.1725, 0.39375
12.003111124, 1.25375, 0.60875, -0.142, -3.38625, 3.99875, 0.63, -0.06725, -0.75, -0.40825, -0.30625, 1.19, 0.07875
12.0532870293, 1.34125, 0.8275, -0.0545, -3.29875, 4.2175, 0.7175, -0.2335, -0.645, 0.0555, -0.4725, 1.295, 0.5425
12.1034810543, 1.35, 1.09875, -0.04575, -3.29, 4.48875, 0.72625, -0.18975, -0.9775, -0.09325, -0.42875, 0.9625, 0.39375
12.1536281109, 1.3675, 0.88, -0.02825, -3.2725, 4.27, 0.74375, -0.111, -0.86375, -0.30325, -0.35, 1.07625, 0.18375
12.2037990093, 1.09625, 0.99375, -0.002, -3.54375, 4.38375, 0.77, -0.20725, -0.86375, 0.04675, -0.44625, 1.07625, 0.53375
12.253991127, 1.13125, 0.95875, -0.02825, -3.50875, 4.34875, 0.74375, -0.03225, -0.86375, -0.277, -0.27125, 1.07625, 0.21
12.304238081, 1.04375, 1.0375, 0.0505, -3.59625, 4.4275, 0.8225, -0.286, -0.4525, -0.1895, -0.525, 1.4875, 0.2975
12.3544561863, 1.13125, 1.1425, 0.103, -3.50875, 4.5325, 0.875, -0.0935, -0.84625, -0.1545, -0.3325, 1.09375, 0.3325
12.4046280384, 1.18375, 1.09875, 0.04175, -3.45625, 4.48875, 0.81375, -0.286, -0.74125, -0.382, -0.525, 1.19875, 0.105
12.4549341202, 1.35875, 0.775, 0.04175, -3.28125, 4.165, 0.81375, -0.356, -0.8725, -0.3295, -0.595, 1.0675, 0.1575
12.5052092075, 1.30625, 0.88875, 0.103, -3.33375, 4.27875, 0.875, -0.2335, -0.93375, -0.102, -0.4725, 1.00625, 0.385
12.5554141998, 1.39375, 0.8275, 0.00675, -3.43875, 4.26125, 0.76125, 0.0815, -0.8375, -0.19825, -0.1575, 1.1025, 0.28875
12.605656147, 1.4025, 0.85375, 0.09425, -3.2375, 4.24375, 0.86625, -0.32975, -0.70625, -0.2595, -0.56875, 1.23375, 0.2275
12.6558580399, 1.3675, 0.99375, -0.02825, -3.2725, 4.38375, 0.74375, -0.111, -0.98625, -0.18075, -0.35, 0.95375, 0.30625
12.706081152, 1.18375, 0.73125, 0.033, -3.45625, 4.12125, 0.805, -0.0935, -0.84625, 0.04675, -0.3325, 1.09375, 0.53375
12.7562811375, 1.07875, 0.78375, -0.13325, -3.56125, 4.17375, 0.63875, -0.1285, -0.9775, -0.11075, -0.3675, 0.9625, 0.37625
12.8064980507, 1.32375, 1.0025, -0.02825, -3.31625, 4.3925, 0.74375, -0.34725, -0.82, -0.14575, -0.58625, 1.12, 0.34125
12.8566470146, 1.14875, 1.13375, -0.06325, -3.49125, 4.52375, 0.70875, -0.286, -0.70625, -0.26825, -0.525, 1.23375, 0.21875
12.9068801403, 1.2975, 0.92375, 0.11175, -3.5525, 4.3575, 0.67375, 0.02025, -0.79375, -0.40825, -0.48125, 1.07625, 0.55125
12.9571101665, 1.11375, 1.13375, 0.00675, -3.52625, 4.52375, 0.77875, -0.13725, -0.68, -0.1545, -0.37625, 1.26, 0.3325
13.0073480606, 1.18375, 0.7575, -0.0895, -3.45625, 4.1475, 0.6825, -0.25975, -0.74125, -0.2945, -0.49875, 1.19875, 0.1925
13.0575380325, 1.1225, 0.74, -0.13325, -3.5175, 4.13, 0.63875, -0.146, -0.8725, -0.18075, -0.385, 1.0675, 0.30625
13.1077480316, 1.14, 1.2125, -0.16825, -3.5, 4.6025, 0.60375, -0.3735, -1.1, -0.102, -0.6125, 0.84, 0.385
13.1579110622, 1.60375, 0.7925, 0.09425, -3.03625, 4.1825, 0.86625, -0.1285, -1.0125, -0.2245, -0.3675, 0.9275, 0.2625
13.2081770897, 1.49, 0.73125, -0.0545, -3.15, 4.12125, 0.7175, -0.1635, -0.93375, -0.067, -0.4025, 1.00625, 0.42
13.2583601475, 1.11375, 1.08125, 0.033, -3.45625, 4.27, 0.84, -0.181, -0.8375, -0.2945, -0.41125, 1.1725, 0.1225
13.3089380264, 1.105, 0.9325, -0.06325, -3.535, 4.3225, 0.70875, -0.17225, -0.9075, -0.18075, -0.41125, 1.0325, 0.30625
13.3591170311, 1.35875, 0.5125, 0.14675, -3.28125, 3.9025, 0.91875, -0.3035, -0.58375, -0.37325, -0.5425, 1.35625, 0.11375
13.4093170166, 1.2975, 0.99375, -0.002, -3.3425, 4.38375, 0.77, -0.146, -0.98625, -0.2945, -0.385, 0.95375, 0.1925
13.4595072269, 1.56, 0.705, -0.142, -3.08, 4.095, 0.63, -0.1985, -0.61875, -0.26825, -0.4375, 1.32125, 0.21875
13.5096731186, 1.32375, 1.13375, -0.037, -3.31625, 4.52375, 0.735, -0.06725, -0.70625, -0.1545, -0.30625, 1.23375, 0.3325
13.5598511696, 1.245, 0.985, -0.002, -3.395, 4.375, 0.77, -0.15475, -0.75875, -0.1545, -0.39375, 1.18125, 0.3325
13.609978199, 1.28875, 0.8275, -0.107, -3.35125, 4.2175, 0.665, -0.1635, -0.82875, -0.2945, -0.4025, 1.11125, 0.1925
13.6602702141, 1.2275, 0.7575, 0.0505, -3.4125, 4.1475, 0.8225, -0.13725, -0.72375, -0.207, -0.37625, 1.21625, 0.28
13.7105181217, 1.28875, 0.775, -0.04575, -3.35125, 4.165, 0.72625, -0.22475, -0.9425, 0.073, -0.46375, 0.9975, 0.56
13.7607350349, 1.4725, 0.74875, 0.033, -3.1675, 4.13875, 0.805, -0.1285, -0.70625, -0.2945, -0.3675, 1.23375, 0.1925
13.8109111786, 1.21875, 1.25625, -0.15075, -3.42125, 4.64625, 0.62125, 0.00275, -0.89, -0.25075, -0.23625, 1.05, 0.23625
13.8610651493, 1.07, 1.13375, 0.07675, -3.57, 4.52375, 0.84875, -0.17225, -0.96, -0.47825, -0.41125, 0.98, 0.00875
13.911247015, 1.1225, 0.95, -0.177, -3.5175, 4.34, 0.595, -0.0235, -0.82875, -0.032, -0.2625, 1.11125, 0.455
13.9614191055, 1.21, 1.02, -0.0545, -3.43, 4.41, 0.7175, -0.36475, -0.81125, -0.30325, -0.60375, 1.12875, 0.18375
14.011631012, 1.28875, 0.95875, 0.07675, -3.35125, 4.34875, 0.84875, 0.07275, -1.03875, -0.0845, -0.16625, 0.90125, 0.4025
14.0619430542, 1.21, 0.95, 0.00675, -3.43, 4.34, 0.77875, -0.0585, -0.68875, -0.032, -0.2975, 1.25125, 0.455
14.112154007, 1.455, 0.85375, -0.01075, -3.185, 4.24375, 0.76125, -0.286, -0.82875, 0.073, -0.525, 1.11125, 0.56
14.1623241901, 1.25375, 0.915, -0.18575, -3.38625, 4.305, 0.58625, -0.216, -0.925, -0.2595, -0.455, 1.015, 0.2275
14.2125952244, 1.455, 0.7225, -0.072, -3.185, 4.1125, 0.7, -0.06725, -0.75875, -0.172, -0.30625, 1.18125, 0.315
14.2627711296, 1.07, 1.02, 0.05925, -3.57, 4.41, 0.83125, -0.006, -0.89875, -0.172, -0.245, 1.04125, 0.315
14.3129720688, 1.2625, 1.15125, -0.15075, -3.3775, 4.54125, 0.62125, -0.52225, -0.6975, 0.13425, -0.76125, 1.2425, 0.62125
14.3631260395, 1.28875, 0.97625, -0.18575, -3.35125, 4.36625, 0.58625, -0.32975, -0.74125, -0.242, -0.56875, 1.19875, 0.245
14.4132962227, 1.28, 1.02, 0.09425, -3.36, 4.41, 0.86625, -0.10225, -0.89875, 0.0905, -0.34125, 1.04125, 0.5775
14.4635021687, 1.18375, 1.2125, 0.1555, -3.45625, 4.6025, 0.9275, -0.15475, -0.9425, -0.137, -0.39375, 0.9975, 0.35
14.5137181282, 1.30625, 0.88875, 0.138, -3.33375, 4.27875, 0.91, -0.1635, -0.96, -0.452, -0.4025, 0.98, 0.035
14.563970089, 1.25375, 0.95875, -0.0895, -3.38625, 4.34875, 0.6825, -0.25975, -0.84625, -0.28575, -0.49875, 1.09375, 0.20125
14.6142380238, 1.14, 0.845, -0.01075, -3.5, 4.235, 0.76125, -0.17225, -0.8025, -0.2595, -0.41125, 1.1375, 0.2275
14.6644320488, 1.28, 0.985, 0.208, -3.36, 4.375, 0.98, 0.064, -0.785, -0.09325, -0.175, 1.155, 0.39375
14.7146031857, 1.14, 0.76625, 0.02425, -3.5, 4.15625, 0.79625, -0.17225, -0.93375, -0.16325, -0.41125, 1.00625, 0.32375
14.7647681236, 1.6475, 0.80125, -0.072, -2.9925, 4.19125, 0.7, -0.356, -1.0125, -0.2945, -0.595, 0.9275, 0.1925
14.8149881363, 1.18375, 1.18625, -0.1245, -3.45625, 4.57625, 0.6475, 0.00275, -1.00375, -0.19825, -0.23625, 0.93625, 0.28875
14.8651850224, 1.1575, 1.055, -0.0545, -3.4825, 4.445, 0.7175, -0.0235, -0.8725, -0.00575, -0.2625, 1.0675, 0.48125
14.9154620171, 1.0875, 0.9325, -0.09825, -3.5525, 4.3225, 0.67375, 0.05525, -0.70625, -0.26825, -0.18375, 1.23375, 0.21875
14.9656112194, 1.18375, 1.0025, -0.0895, -3.45625, 4.3925, 0.6825, -0.1285, -0.7325, -0.35575, -0.3675, 1.2075, 0.13125
15.0157670975, 1.02625, 0.95875, -0.02825, -3.61375, 4.34875, 0.74375, 0.00275, -0.74125, -0.11075, -0.23625, 1.19875, 0.37625
15.0659270287, 1.25375, 0.97625, -0.01075, -3.38625, 4.36625, 0.76125, -0.10225, -0.785, -0.172, -0.34125, 1.155, 0.315
15.1161341667, 1.14875, 1.02875, -0.002, -3.49125, 4.41875, 0.77, -0.356, -0.9425, -0.2945, -0.595, 0.9975, 0.1925
15.1663281918, 1.46375, 0.8975, -0.16825, -3.17625, 4.2875, 0.60375, -0.04975, -0.925, -0.23325, -0.28875, 1.015, 0.25375
15.2164931297, 1.07, 1.01125, -0.02825, -3.57, 4.40125, 0.74375, -0.22475, -0.6275, -0.25075, -0.46375, 1.3125, 0.23625
15.26673913, 1.32375, 0.99375, 0.00675, -3.31625, 4.38375, 0.77875, -0.29475, -0.89875, 0.0555, -0.53375, 1.04125, 0.5425
15.3170061111, 1.0875, 1.16, -0.0545, -3.5525, 4.55, 0.7175, -0.0935, -0.785, -0.312, -0.3325, 1.155, 0.175
15.3674280643, 1.21875, 0.74875, -0.04575, -3.42125, 4.13875, 0.72625, -0.10225, -0.8375, -0.47825, -0.34125, 1.1025, 0.00875
15.417591095, 1.0525, 0.9675, -0.04575, -3.5875, 4.3575, 0.72625, -0.1985, -0.88125, -0.09325, -0.4375, 1.05875, 0.39375
15.4677460194, 1.1925, 0.88, -0.142, -3.4475, 4.27, 0.63, 0.0465, -0.96, -0.37325, -0.1925, 0.98, 0.11375
15.5179312229, 1.11375, 0.85375, -0.002, -3.52625, 4.24375, 0.77, 0.099, -0.93375, -0.2945, -0.14, 1.00625, 0.1925
15.5680789948, 1.385, 0.845, -0.08075, -3.255, 4.235, 0.69125, -0.4085, -0.82, -0.1545, -0.6475, 1.12, 0.3325
15.6183011532, 1.30625, 0.775, 0.04175, -3.33375, 4.165, 0.81375, -0.24225, -1.02125, -0.2595, -0.48125, 0.91875, 0.2275
15.6685271263, 1.23625, 0.9675, -0.16825, -3.40375, 4.3575, 0.60375, -0.08475, -0.925, -0.172, -0.32375, 1.015, 0.315
15.7187850475, 1.13125, 0.9325, -0.0895, -3.50875, 4.3225, 0.6825, -0.216, -0.98625, -0.32075, -0.455, 0.95375, 0.16625
15.7689380646, 0.9125, 0.8975, 0.138, -3.7275, 4.2875, 0.91, -0.1985, -0.61, -0.172, -0.4375, 1.33, 0.315
15.819175005, 1.16625, 1.0025, 0.0505, -3.47375, 4.3925, 0.8225, -0.0235, -0.6275, 0.01175, -0.2625, 1.3125, 0.49875
15.8693652153, 1.0875, 0.9675, 0.033, -3.5525, 4.3575, 0.805, -0.146, -0.715, -0.277, -0.385, 1.225, 0.21
15.9195380211, 1.14, 0.88, -0.0895, -3.5, 4.27, 0.6825, -0.03225, -0.96875, -0.21575, -0.27125, 0.97125, 0.27125
15.9697442055, 1.0, 0.985, 0.04175, -3.64, 4.375, 0.81375, -0.15475, -0.89875, -0.067, -0.39375, 1.04125, 0.42
16.0199370384, 1.0, 1.06375, -0.247, -3.64, 4.45375, 0.525, -0.076, -0.68875, -0.12825, -0.315, 1.25125, 0.35875
16.0702102184, 1.21, 0.8625, -0.04575, -3.43, 4.2525, 0.72625, -0.1635, -0.89875, -0.137, -0.4025, 1.04125, 0.35
16.1204180717, 1.0, 1.08125, 0.0505, -3.64, 4.47125, 0.8225, -0.08475, -0.855, -0.05825, -0.32375, 1.085, 0.42875
16.170623064, 1.1925, 1.11625, -0.18575, -3.4475, 4.50625, 0.58625, -0.01475, -0.95125, 0.06425, -0.25375, 0.98875, 0.55125
16.2208020687, 1.49875, 0.73125, -0.15075, -3.14125, 4.12125, 0.62125, -0.34725, -0.925, -0.172, -0.58625, 1.015, 0.315
16.2710051537, 1.28875, 1.0025, 0.02425, -3.35125, 4.3925, 0.79625, -0.01475, -0.7325, -0.1895, -0.25375, 1.2075, 0.2975
16.3211970329, 1.1225, 1.125, -0.0545, -3.5175, 4.515, 0.7175, -0.32975, -0.68, -0.2245, -0.56875, 1.26, 0.2625
16.3713710308, 1.28875, 1.02, -0.072, -3.35125, 4.41, 0.7, 0.00275, -0.8725, -0.417, -0.23625, 1.0675, 0.07
16.4215781689, 1.21, 0.99375, -0.09825, -3.43, 4.38375, 0.67375, -0.04975, -0.4875, -0.30325, -0.28875, 1.4525, 0.18375
16.471750021, 1.175, 0.9325, 0.14675, -3.465, 4.3225, 0.91875, -0.08475, -0.855, -0.35575, -0.32375, 1.085, 0.13125
16.5219171047, 1.07875, 1.22125, 0.11175, -3.56125, 4.61125, 0.88375, -0.181, -0.61875, -0.172, -0.42, 1.32125, 0.315
16.5720930099, 1.18375, 1.02, -0.107, -3.45625, 4.41, 0.665, -0.04975, -0.7675, -0.1545, -0.28875, 1.1725, 0.3325
16.6222631931, 1.04375, 0.6, -0.1945, -3.59625, 3.99, 0.5775, -0.1985, -0.81125, -0.19825, -0.4375, 1.12875, 0.28875
16.6724181175, 1.4025, 1.04625, 0.138, -3.2375, 4.43625, 0.91, -0.286, -0.86375, -0.172, -0.525, 1.07625, 0.315
16.7226600647, 1.30625, 1.125, 0.09425, -3.33375, 4.515, 0.86625, -0.041, -0.61, -0.18075, -0.28, 1.33, 0.30625
16.7728481293, 1.02625, 0.99375, -0.142, -3.61375, 4.38375, 0.63, -0.03225, -0.855, -0.21575, -0.27125, 1.085, 0.27125
16.8232440948, 1.28, 1.0725, -0.01075, -3.36, 4.4625, 0.76125, -0.1635, -1.02125, -0.2595, -0.4025, 0.91875, 0.2275
16.8734390736, 1.455, 0.5125, -0.002, -3.185, 3.9025, 0.77, -0.111, -0.67125, 0.04675, -0.35, 1.26875, 0.53375
16.9236991405, 1.14875, 0.8975, -0.01075, -3.49125, 4.2875, 0.76125, -0.25975, -0.89, -0.21575, -0.49875, 1.05, 0.27125
16.9738972187, 1.2275, 0.88, -0.0545, -3.4125, 4.27, 0.7175, 0.10775, -0.8725, -0.40825, -0.13125, 1.0675, 0.07875
17.0240910053, 1.2275, 1.01125, 0.033, -3.4125, 4.40125, 0.805, -0.08475, -0.82875, 0.13425, -0.32375, 1.11125, 0.62125
17.074255228, 1.14875, 0.66125, -0.0195, -3.49125, 4.05125, 0.7525, -0.146, -0.9775, -0.207, -0.385, 0.9625, 0.28
17.1244690418, 1.4725, 0.69625, -0.1945, -3.1675, 4.08625, 0.5775, 0.00275, -0.9775, -0.26825, -0.23625, 0.9625, 0.21875
17.1746361256, 1.14875, -0.905, -0.1245, -3.49125, 2.485, 0.6475, -0.25975, -0.79375, -0.28575, -0.49875, 1.14625, 0.20125
17.2248392105, 1.11375, 0.775, 0.033, -3.59625, 4.5675, 0.79625, -0.041, -0.855, 0.143, -0.3325, 1.1725, -0.16625
17.2750251293, 1.16625, 1.1775, 0.068, -3.47375, 4.5675, 0.84, -0.251, -0.93375, -0.137, -0.49, 1.00625, 0.35
17.3252460957, 1.2625, 0.4425, -0.0895, -3.3775, 3.8325, 0.6825, -0.17225, -0.9075, -0.26825, -0.41125, 1.0325, 0.21875
17.37550807, 1.13125, 1.01125, -0.06325, -3.50875, 4.40125, 0.70875, -0.38225, -0.75875, -0.382, -0.62125, 1.18125, 0.105
17.4256892204, 1.245, 0.88875, 0.14675, -3.395, 4.27875, 0.91875, -0.18975, -0.8725, -0.32075, -0.42875, 1.0675, 0.16625
17.4758660793, 1.32375, 0.95, -0.0545, -3.31625, 4.34, 0.7175, -0.3035, -1.135, -0.2595, -0.5425, 0.805, 0.2275
17.5260632038, 0.97375, 1.125, -0.072, -3.66625, 4.515, 0.7, -0.2335, -0.9425, -0.32075, -0.4725, 0.9975, 0.16625
17.5766601562, 1.39375, 0.50375, 0.25175, -3.395, 4.45375, 0.805, 0.0465, -0.70625, -0.2945, -0.35875, 0.9625, 0.42875
17.6270420551, 1.2625, 0.80125, -0.072, -3.3775, 4.19125, 0.7, -0.20725, -0.77625, -0.21575, -0.44625, 1.16375, 0.27125
17.6772210598, 1.48125, 0.60875, 0.11175, -3.15875, 3.99875, 0.88375, -0.0585, -0.98625, -0.067, -0.2975, 0.95375, 0.42
17.7274160385, 1.3325, 0.60875, -0.0545, -3.3075, 3.99875, 0.7175, -0.2685, -0.86375, -0.32075, -0.5075, 1.07625, 0.16625
17.7776679993, 1.21, 1.16, -0.06325, -3.43, 4.55, 0.70875, -0.0235, -0.98625, -0.21575, -0.2625, 0.95375, 0.27125
17.8279161453, 1.20125, 1.09, -0.0895, -3.43875, 4.48, 0.6825, 0.064, -1.12625, -0.207, -0.175, 0.81375, 0.28
17.8780760765, 1.35, 0.95875, -0.2295, -3.29, 4.34875, 0.5425, 0.1165, -0.82875, -0.09325, -0.1225, 1.11125, 0.39375
17.9282832146, 0.9125, 0.81, -0.02825, -3.7275, 4.2, 0.74375, -0.181, -0.925, -0.14575, -0.42, 1.015, 0.34125
17.9785010815, 1.2275, 0.83625, 0.14675, -3.4125, 4.22625, 0.91875, 0.02025, -0.88125, -0.35575, -0.385, 0.98875, 0.39375
18.02891922, 1.37625, 0.73125, -0.01075, -3.26375, 4.12125, 0.76125, -0.216, -0.9425, -0.1195, -0.455, 0.9975, 0.3675
18.0790920258, 1.30625, 0.66125, -0.20325, -3.33375, 4.05125, 0.56875, -0.146, -0.96875, -0.1195, -0.385, 0.97125, 0.3675
18.1292750835, 1.06125, 1.08125, -0.072, -3.57875, 4.47125, 0.7, -0.076, -0.68875, -0.102, -0.315, 1.25125, 0.385
18.1794641018, 1.09625, 0.94125, -0.11575, -3.54375, 4.33125, 0.65625, 0.204, -0.91625, -0.4345, -0.035, 1.02375, 0.0525
18.2296330929, 1.11375, 0.88875, 0.068, -3.52625, 4.27875, 0.84, -0.2335, -0.96875, -0.207, -0.4725, 0.97125, 0.28
18.2798252106, 0.9825, 0.73125, -0.06325, -3.6575, 4.12125, 0.70875, -0.251, -0.6625, -0.21575, -0.49, 1.2775, 0.27125
18.3300001621, 1.06125, 1.22125, -0.1595, -3.57875, 4.61125, 0.6125, -0.006, -1.0475, -0.242, -0.245, 0.8925, 0.245
18.3801600933, 1.1575, 0.8275, -0.18575, -3.4825, 4.2175, 0.58625, -0.146, -0.86375, -0.02325, -0.385, 1.07625, 0.46375
18.43039608, 1.1225, 0.83625, -0.08075, -3.5175, 4.22625, 0.69125, -0.06725, -0.72375, -0.33825, -0.30625, 1.21625, 0.14875
18.4806120396, 1.06125, 0.88875, 0.068, -3.57875, 4.27875, 0.84, -0.216, -0.81125, -0.23325, -0.455, 1.12875, 0.25375
18.5308279991, 1.14, 0.985, -0.01075, -3.5, 4.375, 0.76125, -0.0585, -0.96, -0.1895, -0.2975, 0.98, 0.2975
18.5810120106, 1.3325, 0.7225, -0.08075, -3.3075, 4.1125, 0.69125, -0.27725, -0.96, -0.23325, -0.51625, 0.98, 0.25375
18.6312839985, 1.245, 0.80125, -0.037, -3.395, 4.19125, 0.735, -0.17225, -0.995, -0.0145, -0.42875, 1.00625, 0.30625
18.6814830303, 1.105, 0.95875, 0.0155, -3.535, 4.34875, 0.7875, 0.099, -0.82875, -0.277, -0.14, 1.11125, 0.21
18.7317240238, 1.34125, 1.2475, -0.02825, -3.29875, 4.6375, 0.74375, -0.181, -0.89875, -0.2245, -0.42, 1.04125, 0.2625
18.7819190025, 1.28, 0.9325, -0.072, -3.36, 4.3225, 0.7, -0.391, -0.75875, -0.137, -0.63, 1.18125, 0.35
18.8321070671, 1.3675, 0.8275, -0.06325, -3.2725, 4.2175, 0.70875, -0.04975, -0.82, -0.2595, -0.28875, 1.12, 0.2275
18.8823020458, 1.35, 0.94125, 0.04175, -3.29, 4.33125, 0.81375, -0.3035, -0.91625, 0.18675, -0.5425, 1.02375, 0.67375
18.9324650764, 1.1225, 1.02875, -0.177, -3.5175, 4.41875, 0.595, -0.32975, -0.75, -0.207, -0.56875, 1.19, 0.28
18.9827182293, 1.27125, 0.81875, 0.14675, -3.36875, 4.20875, 0.91875, -0.20725, -0.93375, -0.1545, -0.44625, 1.00625, 0.3325
19.0328900814, 1.23625, 1.055, -0.01075, -3.40375, 4.445, 0.76125, -0.31225, -0.855, -0.1895, -0.55125, 1.085, 0.2975
19.0830771923, 1.28, 0.9675, 0.02425, -3.36, 4.3575, 0.79625, 0.00275, -0.82875, -0.07575, -0.23625, 1.11125, 0.41125
19.1332831383, 1.09625, 0.90625, -0.177, -3.54375, 4.29625, 0.595, -0.41725, -0.75875, -0.0845, -0.65625, 1.18125, 0.4025
19.183465004, 1.2975, 0.95, 0.0505, -3.3425, 4.34, 0.8225, -0.1635, -0.925, -0.32075, -0.4025, 1.015, 0.16625
19.2336101532, 1.2275, 0.92375, 0.05925, -3.4125, 4.31375, 0.83125, -0.2335, -0.8375, -0.207, -0.4725, 1.1025, 0.28
19.2837781906, 1.07875, 1.06375, -0.107, -3.56125, 4.45375, 0.665, 0.0115, -0.9075, -0.07575, -0.2275, 1.0325, 0.41125
19.3340451717, 1.25375, 0.83625, 0.033, -3.38625, 4.22625, 0.805, -0.25975, -0.8375, -0.0495, -0.49875, 1.1025, 0.4375
19.384275198, 1.1925, 0.85375, 0.0505, -3.4475, 4.24375, 0.8225, 0.099, -0.93375, -0.18075, -0.14, 1.00625, 0.30625
19.4344651699, 1.28, 0.83625, -0.247, -3.36, 4.22625, 0.525, -0.181, -0.82, -0.23325, -0.42, 1.12, 0.25375
19.4845972061, 1.14875, 0.97625, -0.08075, -3.49125, 4.36625, 0.69125, -0.15475, -0.9075, -0.11075, -0.39375, 1.0325, 0.37625
19.5347721577, 1.06125, 0.8625, -0.072, -3.57875, 4.2525, 0.7, 0.09025, -0.88125, -0.14575, -0.14875, 1.05875, 0.34125
19.5849540234, 1.20125, 1.02, -0.04575, -3.43875, 4.41, 0.72625, -0.36475, -0.74125, -0.0495, -0.60375, 1.19875, 0.4375
19.6352541447, 1.14, 1.16, -0.002, -3.5, 4.55, 0.77, -0.13725, -0.84625, -0.23325, -0.37625, 1.09375, 0.25375
19.6854720116, 1.3325, 0.635, 0.14675, -3.3075, 4.025, 0.91875, -0.11975, -0.68, -0.172, -0.35875, 1.26, 0.315
19.7356500626, 0.95625, 0.88, -0.107, -3.68375, 4.27, 0.665, -0.17225, -0.855, -0.26825, -0.41125, 1.085, 0.21875
19.785834074, 1.14875, 0.8275, -0.04575, -3.49125, 4.2175, 0.72625, -0.25975, -0.75875, -0.09325, -0.49875, 1.18125, 0.39375
19.8360390663, 1.46375, 0.845, -0.037, -3.17625, 4.235, 0.735, -0.41725, -0.67125, -0.1195, -0.65625, 1.26875, 0.3675
19.8863182068, 1.20125, 0.9675, -0.15075, -3.43875, 4.3575, 0.62125, -0.25975, -0.93375, -0.51325, -0.49875, 1.00625, -0.02625
19.9365451336, 1.16625, 1.01125, -0.037, -3.47375, 4.40125, 0.735, -0.25975, -0.9775, -0.25075, -0.49875, 0.9625, 0.23625
19.986716032, 1.35, 0.94125, 0.07675, -3.29, 4.33125, 0.84875, -0.321, -0.68875, -0.2595, -0.56, 1.25125, 0.2275
20.0369510651, 1.105, 0.99375, 0.18175, -3.535, 4.38375, 0.95375, -0.17225, -1.12625, -0.00575, -0.41125, 0.81375, 0.48125
20.0871782303, 0.99125, 0.88875, 0.0155, -3.64875, 4.27875, 0.7875, -0.11975, -0.7325, -0.172, -0.35875, 1.2075, 0.315
20.1373591423, 1.21, 0.81, 0.00675, -3.43, 4.2, 0.77875, -0.181, -0.91625, 0.073, -0.42, 1.02375, 0.56
20.1876060963, 1.25375, 0.81, -0.037, -3.38625, 4.2, 0.735, -0.076, -1.02125, -0.46075, -0.315, 0.91875, 0.02625
20.2378311157, 1.35, 0.81, -0.13325, -3.29, 4.2, 0.63875, 0.02025, -1.03, 0.003, -0.21875, 0.91, 0.49
20.288022995, 1.3675, 0.4775, 0.0855, -3.395, 4.34875, 0.83125, -0.10225, -0.63625, -0.137, -0.35875, 1.07625, 0.35
20.338242054, 0.95625, 1.09, -0.1245, -3.68375, 4.48, 0.6475, -0.321, -0.7325, -0.487, -0.56, 1.2075, 0.0
20.3884460926, 1.09625, 0.95875, -0.01075, -3.54375, 4.34875, 0.76125, -0.18975, -0.79375, -0.5045, -0.42875, 1.14625, -0.0175
20.4386451244, 0.9825, 1.1775, 0.138, -3.6575, 4.5675, 0.91, 0.16025, -0.91625, -0.452, -0.07875, 1.02375, 0.035
20.4888420105, 1.11375, 1.02, -0.06325, -3.52625, 4.41, 0.70875, -0.04975, -0.855, -0.09325, -0.28875, 1.085, 0.39375
20.5390331745, 1.30625, 0.81875, -0.15075, -3.33375, 4.20875, 0.62125, -0.11975, -0.88125, -0.33825, -0.35875, 1.05875, 0.14875
20.589217186, 1.25375, 0.78375, 0.02425, -3.38625, 4.17375, 0.79625, -0.11975, -0.93375, -0.2595, -0.35875, 1.00625, 0.2275
20.6393780708, 1.315, 0.8975, 0.09425, -3.325, 4.2875, 0.86625, -0.1285, -0.86375, -0.21575, -0.3675, 1.07625, 0.27125
20.6895442009, 1.11375, 0.78375, 0.243, -3.52625, 4.17375, 1.015, 0.0115, -0.79375, -0.23325, -0.2275, 1.14625, 0.25375
20.7397720814, 1.09625, 1.01125, -0.037, -3.54375, 4.40125, 0.735, -0.076, -0.7675, -0.23325, -0.315, 1.1725, 0.25375
20.7899310589, 1.2975, 0.81875, 0.12925, -3.3425, 4.20875, 0.90125, 0.05525, -0.89, -0.14575, -0.18375, 1.05, 0.34125
20.8400821686, 1.35, 0.85375, -0.06325, -3.29, 4.24375, 0.70875, 0.02025, -0.86375, -0.102, -0.21875, 1.07625, 0.385
20.890253067, 1.2275, 0.88, 0.103, -3.4125, 4.27, 0.875, -0.146, -0.82, -0.0145, -0.385, 1.12, 0.4725
20.9407570362, 1.11375, 0.9675, 0.19925, -3.21125, 4.095, 0.8575, 0.0465, -1.09125, -0.417, -0.1925, 0.84875, 0.07
20.9911830425, 0.9825, 0.8275, -0.037, -3.6575, 4.2175, 0.735, -0.1285, -0.75, -0.207, -0.3675, 1.19, 0.28
21.0413680077, 1.20125, 1.09875, 0.00675, -3.43875, 4.48875, 0.77875, -0.03225, -0.7675, -0.277, -0.27125, 1.1725, 0.21
21.0915322304, 1.105, 0.90625, 0.033, -3.535, 4.29625, 0.805, 0.00275, -0.6975, -0.3995, -0.23625, 1.2425, 0.0875
21.1417632103, 1.2625, 0.87125, -0.13325, -3.3775, 4.26125, 0.63875, -0.36475, -0.855, -0.2245, -0.60375, 1.085, 0.2625
21.1919600964, 1.28, 0.88875, 0.033, -3.36, 4.27875, 0.805, -0.24225, -1.0125, -0.12825, -0.48125, 0.9275, 0.35875
21.2421181202, 1.39375, 1.08125, 0.02425, -3.24625, 4.47125, 0.79625, -0.17225, -0.6975, -0.0145, -0.41125, 1.2425, 0.4725
21.2923071384, 1.02625, 0.95, -0.0545, -3.61375, 4.34, 0.7175, -0.041, -0.86375, -0.23325, -0.28, 1.07625, 0.25375
21.3424770832, 1.21, 0.95, -0.09825, -3.43, 4.34, 0.67375, -0.13725, -0.75875, -0.1545, -0.37625, 1.18125, 0.3325
21.3926792145, 1.21875, 1.02875, -0.0895, -3.42125, 4.41875, 0.6825, -0.17225, -0.89875, -0.23325, -0.41125, 1.04125, 0.25375
21.4428751469, 0.9825, 1.20375, -0.13325, -3.6575, 4.59375, 0.63875, -0.04975, -0.82, 0.143, -0.28875, 1.12, 0.63
21.4930341244, 1.175, 1.055, 0.00675, -3.465, 4.445, 0.77875, -0.076, -0.8725, -0.11075, -0.315, 1.0675, 0.37625
21.5432271957, 1.37625, 0.6875, -0.06325, -3.26375, 4.0775, 0.70875, -0.08475, -0.925, -0.11075, -0.32375, 1.015, 0.37625
21.5934062004, 1.0, 1.0025, 0.0855, -3.64, 4.3925, 0.8575, 0.029, -0.8375, -0.1895, -0.21, 1.1025, 0.2975
21.6436560154, 1.5075, 0.55625, -0.0545, -3.1325, 3.94625, 0.7175, -0.286, -0.95125, -0.04075, -0.525, 0.98875, 0.44625
21.6938500404, 1.21875, 0.95, 0.05925, -3.42125, 4.34, 0.83125, 0.0115, -0.9425, -0.0845, -0.2275, 0.9975, 0.4025
21.7440290451, 1.16625, 1.0375, -0.0545, -3.3775, 4.2875, 0.77875, -0.1285, -0.77625, -0.067, -0.4025, 1.12, 0.3675
21.7944200039, 1.0, 1.08125, -0.08075, -3.64, 4.47125, 0.69125, -0.1635, -0.75, -0.032, -0.4025, 1.19, 0.455
21.8445920944, 1.06125, 0.46875, -0.01075, -3.57875, 3.85875, 0.76125, -0.1285, -0.88125, -0.0845, -0.3675, 1.05875, 0.4025
21.8947532177, 1.13125, 0.90625, -0.177, -3.50875, 4.29625, 0.595, -0.111, -0.61, -0.0845, -0.35, 1.33, 0.4025
21.9449310303, 1.27125, 0.74875, 0.0505, -3.36875, 4.13875, 0.8225, 0.05525, -0.82875, -0.0845, -0.18375, 1.11125, 0.4025
21.9951131344, 1.25375, 0.845, -0.06325, -3.38625, 4.235, 0.70875, -0.17225, -0.785, -0.3295, -0.41125, 1.155, 0.1575
22.0452852249, 1.18375, 1.0725, -0.0895, -3.45625, 4.4625, 0.6825, 0.1165, -0.89, -0.242, -0.1225, 1.05, 0.245
22.0954990387, 1.0875, 1.04625, -0.09825, -3.5525, 4.43625, 0.67375, -0.13725, -0.9425, -0.19825, -0.37625, 0.9975, 0.28875
22.1456751823, 1.09625, 0.99375, -0.0545, -3.54375, 4.38375, 0.7175, -0.18975, -0.79375, -0.26825, -0.42875, 1.14625, 0.21875
22.1959300041, 1.28, 0.6875, -0.11575, -3.36, 4.0775, 0.65625, -0.251, -0.63625, -0.28575, -0.49, 1.30375, 0.20125
22.246158123, 1.21875, 0.74, 0.033, -3.42125, 4.13, 0.805, -0.041, -0.89875, -0.05825, -0.28, 1.04125, 0.42875
22.2963750362, 1.18375, 1.01125, 0.05925, -3.45625, 4.40125, 0.83125, 0.0815, -0.7675, 0.01175, -0.1575, 1.1725, 0.49875
22.3466150761, 0.9825, 0.9325, -0.072, -3.6575, 4.3225, 0.7, -0.27725, -0.995, -0.04075, -0.51625, 0.945, 0.44625
22.3968341351, 1.035, 0.8975, -0.04575, -3.605, 4.2875, 0.72625, -0.216, -0.89875, 0.04675, -0.455, 1.04125, 0.53375
22.447065115, 1.14, 0.8275, -0.32575, -3.47375, 4.165, 0.69125, -0.22475, -0.95125, -0.102, -0.2275, 1.12875, 0.18375
22.497300148, 1.1575, 0.87125, 0.068, -3.4825, 4.26125, 0.84, -0.32975, -0.95125, -0.26825, -0.56875, 0.98875, 0.21875
22.5474700928, 1.0525, 0.74, 0.07675, -3.5875, 4.13, 0.84875, -0.20725, -0.88125, -0.137, -0.44625, 1.05875, 0.35
22.5976200104, 1.04375, 1.195, 0.02425, -3.59625, 4.585, 0.79625, -0.06725, -0.74125, -0.102, -0.30625, 1.19875, 0.385
22.6477751732, 1.1575, 0.8975, 0.0155, -3.4825, 4.2875, 0.7875, -0.0585, -0.89875, 0.06425, -0.2975, 1.04125, 0.55125
22.6979441643, 1.2975, 0.9675, -0.0195, -3.3425, 4.3575, 0.7525, 0.05525, -1.1, -0.51325, -0.18375, 0.84, -0.02625
22.748167038, 1.1225, 0.6525, -0.002, -3.5175, 4.0425, 0.77, -0.181, -1.02125, -0.102, -0.42, 0.91875, 0.385
22.7983491421, 1.385, 0.7575, 0.0505, -3.255, 4.1475, 0.8225, -0.01475, -0.8725, -0.05825, -0.25375, 1.0675, 0.42875
22.8485441208, 1.18375, 0.78375, 0.04175, -3.45625, 4.17375, 0.81375, -0.181, -0.75, -0.3645, -0.42, 1.19, 0.1225
22.8987600803, 1.35, 0.73125, -0.072, -3.29, 4.12125, 0.7, -0.22475, -0.9775, -0.25075, -0.46375, 0.9625, 0.23625
22.9489870071, 1.30625, 0.94125, -0.06325, -3.33375, 4.33125, 0.70875, -0.06725, -0.61875, 0.02925, -0.30625, 1.32125, 0.51625
22.999256134, 1.525, 0.845, 0.00675, -3.115, 4.235, 0.77875, -0.08475, -0.89875, -0.28575, -0.32375, 1.04125, 0.20125
23.0494310856, 1.42875, 0.845, 0.05925, -3.21125, 4.235, 0.83125, 0.09025, -0.8725, -0.0145, -0.14875, 1.0675, 0.4725
23.0996570587, 1.3675, 0.8975, 0.09425, -3.2725, 4.2875, 0.86625, -0.216, -0.9425, -0.18075, -0.455, 0.9975, 0.30625
23.1500110626, 1.23625, 0.78375, -0.0195, -3.40375, 4.17375, 0.7525, -0.216, -0.98625, -0.46075, -0.455, 0.95375, 0.02625
23.2011380196, 0.93, 3.2425, 0.02425, -3.71, 6.6325, 0.79625, -0.27725, -0.75, -0.16325, -0.51625, 1.19, 0.32375
23.2513971329, 1.23625, 0.76625, 0.05925, -3.40375, 4.15625, 0.83125, -0.34725, -0.88125, -0.23325, -0.58625, 1.05875, 0.25375
23.3015840054, 1.28, 0.76625, 0.02425, -3.36, 4.15625, 0.79625, -0.251, -0.96, -0.3995, -0.49, 0.98, 0.0875
23.3517930508, 1.0525, 0.635, -0.002, -3.5875, 4.025, 0.77, -0.041, -0.6975, -0.33825, -0.28, 1.2425, 0.14875
23.4019451141, 1.06125, 1.13375, -0.0545, -3.57875, 4.52375, 0.7175, -0.1985, -0.9775, 0.0205, -0.4375, 0.9625, 0.5075
23.4521541595, 1.2625, 0.94125, -0.06325, -3.3775, 4.33125, 0.70875, -0.29475, -0.8725, -0.207, -0.53375, 1.0675, 0.28
23.5023081303, 1.23625, 0.95875, -0.0545, -3.40375, 4.34875, 0.7175, 0.0465, -0.6625, -0.28575, -0.1925, 1.2775, 0.20125
23.5524940491, 1.21875, 1.0725, -0.09825, -3.42125, 4.4625, 0.67375, -0.08475, -0.75, -0.2595, -0.32375, 1.19, 0.2275
23.6027581692, 1.2975, 0.8975, 0.033, -3.3425, 4.2875, 0.805, -0.03225, -0.95125, -0.28575, -0.27125, 0.98875, 0.20125
23.6529581547, 1.0175, 0.62625, -0.09825, -3.6225, 4.01625, 0.67375, 0.064, -1.00375, -0.04075, -0.175, 0.93625, 0.44625
23.7031261921, 1.1925, 0.775, -0.04575, -3.4475, 4.165, 0.72625, -0.01475, -0.785, -0.05825, -0.25375, 1.155, 0.42875
23.7534241676, 1.20125, 0.9675, -0.142, -3.43875, 4.3575, 0.63, 0.099, -0.8375, -0.0495, -0.385, 1.2075, 0.35875
23.8036830425, 1.11375, 0.53, 0.1555, -3.52625, 3.92, 0.9275, 0.169, -0.995, -0.18075, -0.07, 0.945, 0.30625
23.8538351059, 1.28875, 0.95, 0.07675, -3.35125, 4.34, 0.84875, -0.1635, -0.95125, -0.1195, -0.4025, 0.98875, 0.3675
23.9040551186, 1.34125, 0.8625, 0.14675, -3.29875, 4.2525, 0.91875, 0.0815, -0.72375, -0.277, -0.1575, 1.21625, 0.21
23.95423913, 1.1225, 0.87125, -0.0195, -3.5175, 4.26125, 0.7525, 0.1865, -0.6625, -0.242, -0.0525, 1.2775, 0.245
24.0044300556, 1.09625, 0.915, -0.1245, -3.54375, 4.305, 0.6475, 0.0465, -0.82875, -0.07575, -0.1925, 1.11125, 0.41125
24.0546550751, 1.28, 0.60875, -0.16825, -3.36, 3.99875, 0.60375, -0.1985, -0.74125, 0.01175, -0.4375, 1.19875, 0.49875
24.1048641205, 1.06125, 0.94125, 0.0505, -3.57875, 4.33125, 0.8225, -0.13725, -0.6625, -0.26825, -0.37625, 1.2775, 0.21875
24.1550271511, 1.2975, 1.01125, -0.09825, -3.3425, 4.40125, 0.67375, -0.03225, -0.6975, -0.12825, -0.27125, 1.2425, 0.35875
24.2051970959, 1.2975, 1.36125, -0.0545, -3.3425, 4.75125, 0.7175, -0.13725, -0.82875, -0.137, -0.37625, 1.11125, 0.35
24.2553482056, 1.11375, 1.20375, -0.01075, -3.52625, 4.59375, 0.76125, -0.15475, -0.645, -0.242, -0.39375, 1.295, 0.245
24.3055670261, 1.2625, 0.81, 0.0505, -3.3775, 4.2, 0.8225, -0.15475, -1.05625, -0.14575, -0.39375, 0.88375, 0.34125
24.3557581902, 1.30625, 0.81875, -0.02825, -3.75375, 4.515, 0.735, -0.251, -0.74125, -0.16325, -0.53375, 1.33875, 0.27125
24.4073030949, 1.2975, 1.0025, -0.25575, -3.3425, 4.3925, 0.51625, -0.03225, -1.00375, -0.25075, -0.27125, 0.93625, 0.23625
24.4574651718, 1.20125, 1.09875, 0.138, -3.43875, 4.48875, 0.91, 0.064, -0.98625, -0.277, -0.175, 0.95375, 0.21
24.5076451302, 1.0525, 1.0375, 0.04175, -3.5875, 4.4275, 0.81375, -0.31225, -0.8025, -2.6395, -0.55125, 1.1375, -2.1525
24.5577950478, 1.42875, 0.80125, -0.20325, -3.21125, 4.19125, 0.56875, -0.04975, -0.7675, -0.1195, -0.28875, 1.1725, 0.3675
24.6080009937, 1.3325, 0.81875, -0.02825, -3.38625, 4.29625, 0.5775, -0.13725, -0.89875, -0.242, -0.595, 1.1025, 0.39375
24.6592562199, 1.2625, 1.0725, -0.0545, -3.3775, 4.4625, 0.7175, -0.216, -0.785, -0.2945, -0.455, 1.155, 0.1925
24.7094521523, 1.0875, 1.11625, 0.04175, -3.5525, 4.50625, 0.81375, -0.04975, -0.81125, -0.32075, -0.28875, 1.12875, 0.16625
24.7596120834, 1.35, 0.74, -0.09825, -3.29, 4.13, 0.67375, -0.24225, -0.75, -0.1895, -0.48125, 1.19, 0.2975
24.8097760677, 1.3325, 0.92375, -0.0895, -3.3075, 4.31375, 0.6825, -0.3385, -0.68, -0.14575, -0.5775, 1.26, 0.34125
24.8600010872, 1.30625, 1.055, -0.02825, -3.33375, 4.445, 0.74375, -0.20725, -0.715, -0.347, -0.44625, 1.225, 0.14
24.9101641178, 1.2275, 1.09, -0.08075, -3.4125, 4.48, 0.69125, -0.24225, -0.82, -0.04075, -0.48125, 1.12, 0.44625
24.9603431225, 1.14, 0.87125, 0.02425, -3.5, 4.26125, 0.79625, -0.076, -0.79375, -0.0845, -0.315, 1.14625, 0.4025
25.0107200146, 1.28875, 1.1075, -0.0895, -3.3775, 4.38375, 0.77, 0.09025, -0.9075, 0.073, -0.16625, 0.9625, 0.28875
25.0609931946, 1.25375, 0.915, -0.002, -3.38625, 4.305, 0.77, -0.146, -0.715, -0.2245, -0.385, 1.225, 0.2625
25.1112880707, 1.53375, 1.0025, -0.18575, -3.10625, 4.3925, 0.58625, 0.0465, -0.89, -0.12825, -0.1925, 1.05, 0.35875
25.161588192, 1.3675, 0.81875, -0.11575, -3.45625, 4.24375, 0.83125, -0.251, -0.855, 0.003, -0.3325, 1.1025, 0.245
25.2121081352, 1.20125, 0.8275, 0.1205, -3.43875, 4.2175, 0.8925, -0.11975, -1.02125, 0.08175, -0.35875, 0.91875, 0.56875
25.2622511387, 1.51625, 0.81, -0.13325, -3.12375, 4.2, 0.63875, -0.181, -0.6975, -0.28575, -0.42, 1.2425, 0.20125
25.3124530315, 1.32375, 1.01125, -0.09825, -3.31625, 4.40125, 0.67375, -0.0235, -0.61875, -0.33825, -0.2625, 1.32125, 0.14875
25.3643331528, 1.30625, 0.92375, -0.15075, -3.33375, 4.31375, 0.62125, 0.00275, -1.03875, 0.04675, -0.23625, 0.90125, 0.53375
25.4145071507, 1.1575, 0.83625, -0.107, -3.4825, 4.22625, 0.665, -0.10225, -0.8025, -0.26825, -0.34125, 1.1375, 0.21875
25.4646711349, 1.35, 1.01125, -0.1245, -3.29, 4.40125, 0.6475, 0.064, -0.84625, -0.04075, -0.175, 1.09375, 0.44625
25.5148501396, 1.04375, 0.985, -0.02825, -3.59625, 4.375, 0.74375, -0.03225, -0.70625, -0.2245, -0.27125, 1.23375, 0.2625
25.5650191307, 1.2275, 0.7225, -0.107, -3.4125, 4.1125, 0.665, -0.18975, -0.8025, -0.25075, -0.42875, 1.1375, 0.23625
25.6152641773, 1.37625, 0.97625, -0.317, -3.26375, 4.36625, 0.455, 0.169, -0.925, -0.2595, -0.07, 1.015, 0.2275
25.6654682159, 1.46375, 0.9325, 0.04175, -3.17625, 4.3225, 0.81375, -0.27725, -0.89875, -0.18075, -0.51625, 1.04125, 0.30625
25.715649128, 1.3675, 0.81, -0.06325, -3.2725, 4.2, 0.70875, -0.1285, -0.785, -0.3295, -0.3675, 1.155, 0.1575
25.7658481598, 1.2975, 0.6875, -0.0195, -3.3425, 4.0775, 0.7525, -0.2335, -0.77625, -0.137, -0.4725, 1.16375, 0.35
25.8160300255, 1.21, 0.9325, 0.05925, -3.43, 4.3225, 0.83125, -0.20725, -0.79375, 0.143, -0.44625, 1.14625, 0.63
25.8662190437, 1.09625, 0.95, -0.02825, -3.54375, 4.34, 0.74375, -0.286, -0.84625, -0.172, -0.525, 1.09375, 0.315
25.917538166, 1.2275, 1.02, 0.12925, -3.4125, 4.41, 0.90125, -0.2335, -0.995, -0.19825, -0.4725, 0.945, 0.28875
25.9677391052, 1.14, 1.09875, 0.00675, -3.5, 4.48875, 0.77875, -0.0585, -0.9425, 0.0205, -0.2975, 0.9975, 0.5075
26.0184011459, 1.25375, 0.9325, -0.06325, -3.38625, 4.3225, 0.70875, -0.0585, -1.03875, -0.19825, -0.2975, 0.90125, 0.28875
26.0688140392, 1.49875, 0.78375, 0.033, -3.14125, 4.17375, 0.805, -0.32975, -0.715, -0.172, -0.56875, 1.225, 0.315
26.1189830303, 1.44625, 0.7225, -0.09825, -3.19375, 4.1125, 0.67375, -0.1635, -0.9425, 0.04675, -0.4025, 0.9975, 0.53375
26.1691992283, 1.07875, 0.85375, 0.0855, -3.56125, 4.24375, 0.8575, -0.04975, -0.6625, 0.08175, -0.28875, 1.2775, 0.56875
26.2194092274, 1.06125, 0.6175, -0.02825, -3.57875, 4.0075, 0.74375, -0.15475, -0.89875, 0.04675, -0.39375, 1.04125, 0.53375
26.2695720196, 1.34125, 0.85375, 0.00675, -3.29875, 4.24375, 0.77875, -0.0585, -0.98625, -0.16325, -0.2975, 0.95375, 0.32375
26.3197622299, 1.4025, 0.85375, -0.002, -3.2375, 4.24375, 0.77, -0.006, -0.645, -0.05825, -0.245, 1.295, 0.42875
26.369988203, 1.21, 1.09875, 0.02425, -3.43, 4.48875, 0.79625, -0.0585, -0.91625, -0.102, -0.2975, 1.02375, 0.385
26.420219183, 1.39375, 0.81, 0.02425, -3.24625, 4.2, 0.79625, -0.0235, -0.75, -0.35575, -0.2625, 1.19, 0.13125
26.4703640938, 1.2275, 0.88, 0.0155, -3.4125, 4.27, 0.7875, -0.15475, -0.785, -0.1195, -0.39375, 1.155, 0.3675
26.520539999, 1.2625, 0.74, 0.033, -3.3775, 4.13, 0.805, -0.13725, -1.10875, 0.073, -0.37625, 0.83125, 0.56
26.5707511902, 1.44625, 0.73125, 0.103, -3.19375, 4.12125, 0.875, -0.146, -0.96, -0.18075, -0.385, 0.98, 0.30625
26.6209881306, 1.105, 0.9675, -0.1245, -3.535, 4.3575, 0.6475, -0.03225, -0.79375, -0.35575, -0.27125, 1.14625, 0.13125
26.6711881161, 1.02625, 0.81, -0.09825, -3.61375, 4.2, 0.67375, -0.216, -0.7675, -0.1895, -0.455, 1.1725, 0.2975
26.7213811874, 1.04375, 1.16, 0.04175, -3.59625, 4.55, 0.81375, 0.02025, -0.9425, -0.21575, -0.21875, 0.9975, 0.27125
26.7715890408, 1.20125, 0.6175, 0.068, -3.43875, 4.0075, 0.84, -0.006, -1.17, -0.2595, -0.245, 0.77, 0.2275
26.8218200207, 1.105, 1.01125, 0.103, -3.535, 4.40125, 0.875, 0.12525, -0.96875, -0.14575, -0.11375, 0.97125, 0.34125
26.872013092, 1.14875, 0.67, -0.01075, -3.49125, 4.06, 0.76125, -0.18975, -0.9075, -0.11075, -0.42875, 1.0325, 0.37625
26.9222102165, 1.28, 1.13375, 0.11175, -3.36, 4.52375, 0.88375, -0.13725, -0.9775, -0.32075, -0.37625, 0.9625, 0.16625
26.9724850655, 1.105, 0.74875, 0.103, -3.535, 4.13875, 0.875, -0.36475, -1.02125, -0.07575, -0.60375, 0.91875, 0.41125
27.0239372253, 1.35875, 1.055, -0.02825, -3.28125, 4.445, 0.74375, -0.1285, -0.995, -0.0145, -0.3675, 0.945, 0.4725
27.07411623, 1.14875, 1.2825, -0.08075, -3.49125, 4.6725, 0.69125, -0.20725, -0.96875, -0.25075, -0.44625, 0.97125, 0.23625
27.1242821217, 1.25375, 1.06375, 0.0505, -3.2725, 4.27, 0.79625, -0.11975, -0.96875, -0.0495, -0.2275, 1.12, 0.21875
27.1745131016, 1.3325, 1.125, -0.06325, -3.3075, 4.515, 0.70875, -0.15475, -0.79375, -0.3295, -0.39375, 1.14625, 0.1575
27.2246921062, 1.1225, 0.87125, 0.02425, -3.5175, 4.26125, 0.79625, 0.16025, -0.72375, -0.05825, -0.07875, 1.21625, 0.42875
27.274834156, 1.07875, 1.02, -0.212, -3.56125, 4.41, 0.56, 0.0115, -0.96, -0.07575, -0.2275, 0.98, 0.41125
27.3250520229, 1.14875, 0.90625, 0.07675, -3.49125, 4.29625, 0.84875, -0.04975, -0.6975, -0.05825, -0.28875, 1.2425, 0.42875
27.3752250671, 1.28, 0.9325, -0.037, -3.36, 4.3225, 0.735, -0.216, -0.995, -0.25075, -0.455, 0.945, 0.23625
27.4254300594, 1.1575, 1.36125, 0.2605, -3.4825, 4.75125, 1.0325, -0.356, -1.135, -0.417, -0.595, 0.805, 0.07
27.4756062031, 1.11375, 0.6875, 0.173, -3.52625, 4.0775, 0.945, -0.0935, -0.8725, -0.032, -0.3325, 1.0675, 0.455
27.525783062, 1.35, 0.88875, 0.05925, -3.29, 4.27875, 0.83125, -0.006, -0.575, -0.0845, -0.245, 1.365, 0.4025
27.5760481358, 1.1225, 1.0725, -0.06325, -3.5175, 4.4625, 0.70875, -0.216, -0.8725, -0.207, -0.455, 1.0675, 0.28
27.6262822151, 1.25375, 0.95875, -0.02825, -3.38625, 4.34875, 0.74375, -0.22475, -0.82, -0.30325, -0.46375, 1.12, 0.18375
27.6764531136, 1.18375, 0.71375, 0.07675, -3.45625, 4.10375, 0.84875, -0.32975, -0.855, -0.18075, -0.56875, 1.085, 0.30625
27.7266600132, 1.37625, 0.74, -0.09825, -3.26375, 4.13, 0.67375, -0.27725, -0.81125, -0.032, -0.51625, 1.12875, 0.455
27.7768511772, 1.11375, 3.295, 0.1205, -3.4125, 4.38375, 0.84875, -0.146, -0.88125, -0.16325, -0.385, 1.05875, 0.32375
27.8281011581, 1.21875, 0.92375, -0.01075, -3.42125, 4.31375, 0.76125, -0.22475, -0.68, -0.137, -0.46375, 1.26, 0.35
27.8782842159, 1.4375, 0.94125, 0.04175, -3.2025, 4.33125, 0.81375, -0.2335, -0.7675, -0.33825, -0.4725, 1.1725, 0.14875
27.9284601212, 1.20125, 1.08125, 0.0855, -3.43875, 4.47125, 0.8575, -0.32975, -0.9425, -0.2595, -0.56875, 0.9975, 0.2275
27.9786782265, 1.4025, 0.80125, -0.0195, -3.2375, 4.19125, 0.7525, -0.22475, -1.05625, -0.30325, -0.46375, 0.88375, 0.18375
28.0288460255, 1.1575, 0.97625, -0.142, -3.4825, 4.36625, 0.63, -0.24225, -0.60125, 0.01175, -0.48125, 1.33875, 0.49875
28.0790250301, 1.2275, 0.8975, 0.0505, -3.4125, 4.2875, 0.8225, -0.321, -0.84625, -0.14575, -0.56, 1.09375, 0.34125
28.1293830872, 1.1225, 0.81, 0.033, -3.5175, 4.2, 0.805, -0.24225, -0.855, -0.2245, -0.48125, 1.085, 0.2625
28.1796021461, 1.0525, 1.06375, -0.177, -3.5875, 4.45375, 0.595, -0.0935, -0.7325, -0.33825, -0.3325, 1.2075, 0.14875
28.2298130989, 1.18375, 0.8625, 0.09425, -3.45625, 4.2525, 0.86625, 0.169, -0.84625, -0.09325, -0.07, 1.09375, 0.39375
28.279998064, 1.34125, 0.76625, -0.13325, -3.29875, 4.15625, 0.63875, 0.19525, -0.68875, -0.032, -0.04375, 1.25125, 0.455
28.330201149, 1.37625, 0.845, -0.1945, -3.26375, 4.235, 0.5775, -0.18975, -0.67125, -0.25075, -0.42875, 1.26875, 0.23625
28.3804271221, 1.23625, 0.9325, 0.208, -3.40375, 4.3225, 0.98, -0.286, -1.00375, 0.01175, -0.525, 0.93625, 0.49875
28.4307022095, 1.20125, 0.95875, -0.06325, -3.43875, 4.34875, 0.70875, -0.03225, -0.855, 0.06425, -0.32375, 1.11125, 0.1925
28.4811830521, 1.3675, 0.74, -0.037, -3.2725, 4.13, 0.735, -0.0235, -0.56625, -0.12825, -0.2625, 1.37375, 0.35875
28.5313990116, 1.06125, 1.46625, -0.22075, -3.57875, 4.85625, 0.55125, -0.08475, -0.88125, -0.28575, -0.32375, 1.05875, 0.20125
28.5815911293, 1.34125, 0.85375, 0.0855, -3.29875, 4.24375, 0.8575, -0.111, -0.68875, -0.032, -0.35, 1.25125, 0.455
28.6317791939, 1.175, 0.80125, -0.107, -3.465, 4.19125, 0.665, -0.17225, -0.75875, -0.242, -0.41125, 1.18125, 0.245
28.6819660664, 1.21, 0.90625, -0.072, -3.43, 4.29625, 0.7, 0.05525, -0.82875, 0.18675, -0.18375, 1.11125, 0.67375
28.7321050167, 1.385, 1.01125, -0.08075, -3.255, 4.40125, 0.69125, 0.12525, -0.95125, -0.37325, -0.11375, 0.98875, 0.11375
28.7822980881, 1.245, 1.055, -0.0545, -3.395, 4.445, 0.7175, -0.181, -0.93375, -0.14575, -0.42, 1.00625, 0.34125
28.8324930668, 1.32375, 0.87125, -0.177, -3.36, 4.45375, 0.83125, -0.0935, -0.75875, -0.04075, -0.3325, 1.18125, 0.44625
28.8833291531, 1.09625, 1.27375, -0.01075, -3.54375, 4.66375, 0.76125, -0.29475, -0.75875, -0.33825, -0.53375, 1.18125, 0.14875
28.9335010052, 1.2625, 0.8275, -0.08075, -3.3775, 4.2175, 0.69125, 0.064, -0.74125, -0.207, -0.175, 1.19875, 0.28
28.983659029, 1.3675, 0.92375, 0.1205, -3.2725, 4.31375, 0.8925, -0.146, -0.68875, -0.2945, -0.385, 1.25125, 0.1925
29.033875227, 1.1575, 0.87125, 0.16425, -3.4825, 4.26125, 0.93625, -0.0585, -0.79375, -0.1545, -0.2975, 1.14625, 0.3325
29.0840480328, 1.49, 0.83625, -0.04575, -3.15, 4.22625, 0.72625, -0.15475, -0.93375, -0.242, -0.39375, 1.00625, 0.245
29.1342661381, 1.28, 0.845, 0.04175, -3.36, 4.235, 0.81375, -0.076, -0.74125, -0.16325, -0.315, 1.19875, 0.32375
29.184469223, 1.04375, 1.1425, 0.068, -3.59625, 4.5325, 0.84, -0.041, -0.93375, -0.12825, -0.28, 1.00625, 0.35875
29.2346990108, 1.245, 0.9325, -0.25575, -3.395, 4.3225, 0.51625, -0.3035, -0.86375, -0.33825, -0.5425, 1.07625, 0.14875
29.2848951817, 1.1225, 0.85375, -0.0195, -3.5175, 4.24375, 0.7525, -0.181, -1.065, -0.32075, -0.42, 0.875, 0.16625
29.3351089954, 1.6475, 0.76625, -0.037, -2.9925, 4.15625, 0.735, 0.05525, -0.7675, -0.102, -0.18375, 1.1725, 0.385
29.3852851391, 1.34125, 0.76625, -0.01075, -3.29875, 4.15625, 0.76125, -0.11975, -0.995, -0.277, -0.35875, 0.945, 0.21
29.4354660511, 1.35, 0.8625, -0.142, -3.29, 4.2525, 0.63, -0.27725, -0.89875, -0.28575, -0.51625, 1.04125, 0.20125
29.4856650829, 1.245, 0.67875, 0.0505, -3.395, 4.06875, 0.8225, 0.12525, -0.8375, -0.277, -0.11375, 1.1025, 0.21
29.5358932018, 1.2275, 0.88875, 0.0505, -3.4125, 4.27875, 0.8225, 0.02025, -1.00375, -0.11075, -0.21875, 0.93625, 0.37625
29.58613801, 1.245, 1.02, -0.01075, -3.395, 4.41, 0.76125, -0.3035, -0.855, -0.39075, -0.5425, 1.085, 0.09625
29.6363601685, 1.28875, 0.95, 0.0155, -3.35125, 4.34, 0.7875, -0.1285, -0.68, -0.1545, -0.3675, 1.26, 0.3325
29.6865420341, 1.245, 0.7925, 0.0505, -3.395, 4.1825, 0.8225, -0.24225, -0.61, -0.33825, -0.48125, 1.33, 0.14875
29.7367172241, 1.42875, 0.7575, -0.0545, -3.21125, 4.1475, 0.7175, -0.24225, -0.70625, -0.28575, -0.48125, 1.23375, 0.20125
29.7869040966, 1.28875, 0.81875, -0.11575, -3.35125, 4.20875, 0.65625, -0.251, -0.9775, 0.0205, -0.49, 0.9625, 0.5075
29.8371422291, 1.27125, 0.915, 0.0855, -3.36875, 4.305, 0.8575, 0.029, -0.995, -0.28575, -0.21, 0.945, 0.20125
29.8873641491, 1.28, 0.845, -0.27325, -3.36, 4.235, 0.49875, -0.24225, -0.785, 0.04675, -0.48125, 1.155, 0.53375
29.9375681877, 1.18375, 0.845, 0.0505, -3.45625, 4.235, 0.8225, -0.18975, -0.86375, -0.242, -0.42875, 1.07625, 0.245
29.9877722263, 1.1575, 0.87125, 0.19925, -3.4825, 4.26125, 0.97125, -0.1985, -0.8025, -0.19825, -0.4375, 1.1375, 0.28875
30.0382630825, 1.245, 0.74, -0.037, -3.395, 4.13, 0.735, -0.1985, -0.81125, -0.12825, -0.4375, 1.12875, 0.35875
30.0885441303, 1.11375, 1.08125, -0.02825, -3.52625, 4.47125, 0.74375, 0.099, -1.0825, -0.312, -0.14, 0.8575, 0.175
30.1387619972, 1.09625, 1.01125, -0.0545, -3.54375, 4.40125, 0.7175, -0.0235, -0.68875, -0.277, -0.2625, 1.25125, 0.21
30.1889181137, 1.13125, 1.01125, -0.0895, -3.50875, 4.40125, 0.6825, -0.0935, -0.91625, -0.417, -0.3325, 1.02375, 0.07
30.2390789986, 1.00875, 0.85375, -0.037, -3.63125, 4.24375, 0.735, 0.05525, -0.77625, 0.038, -0.18375, 1.16375, 0.525
30.2892680168, 1.37625, 0.57375, 0.103, -3.26375, 3.96375, 0.875, -0.146, -0.84625, -0.277, -0.385, 1.09375, 0.21
30.3394892216, 1.2975, 1.04625, -0.01075, -3.3425, 4.43625, 0.76125, -0.08475, -0.67125, 0.003, -0.32375, 1.26875, 0.49
30.3896651268, 1.1225, 0.80125, -0.04575, -3.5175, 4.19125, 0.72625, -0.181, -0.81125, -0.102, -0.42, 1.12875, 0.385
30.4398760796, 1.23625, 0.78375, -0.072, -3.40375, 4.17375, 0.7, -0.006, -0.96, -0.26825, -0.245, 0.98, 0.21875
30.4900212288, 1.14875, 0.7925, -0.072, -3.49125, 4.1825, 0.7, -0.1635, -0.68875, -0.242, -0.4025, 1.25125, 0.245
30.540199995, 1.105, 3.33, 0.0855, -3.535, 6.72, 0.8575, -0.18975, -0.715, -0.2245, -0.42875, 1.225, 0.2625
30.5904099941, 1.16625, 0.90625, 0.0155, -3.47375, 4.29625, 0.7875, -0.0935, -1.0125, -0.32075, -0.3325, 0.9275, 0.16625
30.6406011581, 1.13125, 0.985, 0.12925, -3.50875, 4.375, 0.90125, 0.09025, -0.82875, 0.108, -0.14875, 1.11125, 0.595
30.6908230782, 1.13125, 0.60875, -0.177, -3.50875, 3.99875, 0.595, 0.1515, -0.91625, -0.0845, -0.0875, 1.02375, 0.4025
30.7410521507, 1.20125, 1.13375, 0.16425, -3.43875, 4.52375, 0.93625, -0.04975, -0.75875, 0.003, -0.28875, 1.18125, 0.49
30.7912111282, 1.23625, 0.74875, -0.072, -3.40375, 4.13875, 0.7, -0.20725, -1.1, 0.02925, -0.44625, 0.84, 0.51625
30.8414130211, 1.0525, 0.845, -0.04575, -3.5875, 4.235, 0.72625, -0.01475, -0.6975, -0.2595, -0.25375, 1.2425, 0.2275
30.8916120529, 1.11375, 0.88, 0.16425, -3.52625, 4.27, 0.93625, -0.24225, -0.75875, -0.26825, -0.48125, 1.18125, 0.21875
30.9417860508, 1.1225, 0.7925, -0.08075, -3.5175, 4.1825, 0.69125, 0.03775, -0.96, -0.12825, -0.20125, 0.98, 0.35875
30.9920170307, 1.0875, 0.85375, -0.13325, -3.5525, 4.24375, 0.63875, 0.0815, -0.79375, -0.067, -0.1575, 1.14625, 0.42
31.0423400402, 1.20125, 0.775, -0.15075, -3.43875, 4.165, 0.62125, -0.15475, -0.74125, -0.2245, -0.39375, 1.19875, 0.2625
31.092498064, 1.21, 1.02875, 0.02425, -3.43, 4.41875, 0.79625, 0.02025, -0.82, -0.067, -0.21875, 1.12, 0.42
31.1426970959, 1.42, 0.705, 0.033, -3.22, 4.095, 0.805, -0.22475, -0.6975, -0.16325, -0.46375, 1.2425, 0.32375
31.192841053, 1.20125, 0.845, -0.0545, -3.43875, 4.235, 0.7175, -0.1285, -0.98625, -0.25075, -0.3675, 0.95375, 0.23625
31.2430150509, 1.09625, 1.0025, 0.02425, -3.54375, 4.3925, 0.79625, -0.27725, -0.77625, -0.172, -0.51625, 1.16375, 0.315
31.2932150364, 1.21, 0.71375, 0.068, -3.43, 4.10375, 0.84, 0.064, -0.575, -0.102, -0.175, 1.365, 0.385
31.3434622288, 1.315, 0.76625, -0.02825, -3.325, 4.15625, 0.74375, -0.17225, -0.75875, -0.37325, -0.41125, 1.18125, 0.11375
31.3936350346, 1.385, 0.85375, 0.16425, -3.255, 4.24375, 0.93625, -0.1635, -0.81125, -0.30325, -0.4025, 1.12875, 0.18375
31.4438581467, 0.97375, 1.06375, -0.1945, -3.66625, 4.45375, 0.5775, 0.0115, -0.88125, -0.00575, -0.2275, 1.05875, 0.48125
31.4940562248, 1.175, 0.8275, 0.12925, -3.465, 4.2175, 0.90125, -0.2685, -0.6275, -0.0145, -0.5075, 1.3125, 0.4725
31.5442640781, 1.1925, 1.23875, -0.20325, -3.4475, 4.62875, 0.56875, -0.03225, -0.86375, -0.30325, -0.27125, 1.07625, 0.18375
31.5944681168, 1.315, 0.7225, -0.04575, -3.325, 4.1125, 0.72625, -0.29475, -0.925, -0.00575, -0.53375, 1.015, 0.48125
31.6446490288, 1.28875, 0.88875, 0.068, -3.35125, 4.27875, 0.84, -0.0585, -0.8725, -0.1545, -0.2975, 1.0675, 0.3325
31.6951870918, 1.4025, 0.6525, -0.08075, -3.2375, 4.0425, 0.69125, -0.1985, -0.6625, -0.032, -0.42, 1.0325, 0.14
31.7454140186, 1.41125, 0.425, -0.01075, -3.22875, 3.815, 0.76125, -0.11975, -0.7675, -0.277, -0.35875, 1.1725, 0.21
31.7956051826, 1.37625, 0.9675, -0.1245, -3.26375, 4.3575, 0.6475, -0.32975, -0.995, -0.04075, -0.56875, 0.945, 0.44625
31.8458142281, 1.1225, 0.90625, 0.1555, -3.5175, 4.29625, 0.9275, -0.04975, -0.89, -0.25075, -0.28875, 1.05, 0.23625
31.8959832191, 1.32375, 0.95875, -0.11575, -3.31625, 4.34875, 0.65625, -0.18975, -0.855, -0.19825, -0.42875, 1.085, 0.28875
31.946254015, 1.3325, 0.7925, 0.0505, -3.3075, 4.1825, 0.8225, 0.03775, -0.93375, -0.26825, -0.20125, 1.00625, 0.21875
31.9964470863, 1.0875, 0.97625, 0.103, -3.5525, 4.36625, 0.875, -0.04975, -0.98625, 0.13425, -0.28875, 0.95375, 0.62125
32.0466461182, 1.35, 0.6175, 0.103, -3.29, 4.0075, 0.875, -0.20725, -0.645, -0.25075, -0.44625, 1.295, 0.23625
32.0968811512, 1.2975, 0.915, -0.06325, -3.3425, 4.305, 0.70875, -0.0235, -0.79375, -0.067, -0.2625, 1.14625, 0.42
32.147105217, 1.2275, 0.81, -0.3695, -3.4125, 4.2, 0.4025, -0.1285, -0.93375, -0.19825, -0.3675, 1.00625, 0.28875
32.197270155, 1.30625, 0.67875, -0.037, -3.33375, 4.06875, 0.735, 0.03775, -0.9075, -0.2595, -0.20125, 1.0325, 0.2275
32.2474792004, 1.18375, 1.195, -0.1245, -3.45625, 4.585, 0.6475, -0.216, -0.84625, -0.25075, -0.455, 1.09375, 0.23625
32.2976720333, 1.32375, 0.78375, 0.0855, -3.31625, 4.17375, 0.8575, -0.111, -0.82, -0.12825, -0.35, 1.12, 0.35875
32.3479540348, 1.41125, 0.85375, 0.1555, -3.22875, 4.24375, 0.9275, -0.181, -0.82875, -0.0495, -0.42, 1.11125, 0.4375
32.3981292248, 1.2275, 1.0025, -0.1245, -3.4125, 4.3925, 0.6475, 0.00275, -0.81125, -0.09325, -0.23625, 1.12875, 0.39375
32.4483430386, 1.1225, 0.90625, -0.1245, -3.5175, 4.29625, 0.6475, 0.064, -0.715, -0.102, -0.175, 1.225, 0.385
32.4985170364, 1.09625, 0.78375, -0.002, -3.54375, 4.17375, 0.77, 0.099, -0.855, -0.02325, -0.14, 1.085, 0.46375
32.5487260818, 1.315, 0.7225, 0.09425, -3.325, 4.1125, 0.86625, 0.16025, -0.70625, -0.2245, -0.07875, 1.23375, 0.2625
32.598949194, 1.175, 0.635, -0.04575, -3.465, 4.025, 0.72625, -0.22475, -0.96875, -0.1895, -0.46375, 0.97125, 0.2975
32.6491830349, 1.09625, 0.78375, 0.0505, -3.54375, 4.17375, 0.8225, -0.06725, -0.89875, -0.2595, -0.30625, 1.04125, 0.2275
32.6993911266, 1.385, 0.67, -0.002, -3.255, 4.06, 0.77, -0.216, -0.8725, -0.2945, -0.455, 1.0675, 0.1925
32.7496140003, 1.20125, 0.81, -0.02825, -3.43875, 4.2, 0.74375, -0.1285, -1.0825, -0.09325, -0.3675, 0.8575, 0.39375
32.7997500896, 1.39375, 0.845, -0.18575, -3.24625, 4.235, 0.58625, 0.02025, -0.8725, -0.172, -0.21875, 1.0675, 0.315
32.8500101566, 0.9825, 0.90625, -0.0895, -3.6575, 4.29625, 0.6825, -0.13725, -0.645, -0.11075, -0.37625, 1.295, 0.37625
32.9002361298, 1.35875, 0.74875, 0.04175, -3.28125, 4.13875, 0.81375, -0.111, -0.89, -0.12825, -0.35, 1.05, 0.35875
32.9504070282, 1.25375, 0.7925, -0.212, -3.38625, 4.1825, 0.56, -0.216, -0.88125, -0.07575, -0.455, 1.05875, 0.41125
33.0006330013, 1.14875, 0.6175, -0.01075, -3.49125, 4.0075, 0.76125, -0.0935, -0.91625, -0.25075, -0.3325, 1.02375, 0.23625
33.0508370399, 1.0525, 1.0025, -0.0895, -3.5875, 4.3925, 0.6825, 0.03775, -0.61, -0.07575, -0.20125, 1.33, 0.41125
33.1010730267, 1.4025, 0.7925, -0.0195, -3.2375, 4.1825, 0.7525, -0.1285, -0.89875, -0.102, -0.3675, 1.04125, 0.385
33.1513051987, 1.07875, 1.18625, -0.01075, -3.56125, 4.57625, 0.76125, -0.2685, -0.95125, -0.25075, -0.5075, 0.98875, 0.23625
33.2014601231, 1.20125, 0.83625, 0.09425, -3.43875, 4.22625, 0.86625, -0.0935, -0.995, -0.277, -0.3325, 0.945, 0.21
33.2516210079, 1.3675, 1.02, -0.002, -3.2725, 4.41, 0.77, -0.0935, -0.68, -0.16325, -0.3325, 1.26, 0.32375
33.3017840385, 1.3675, 1.22125, -0.1945, -3.2725, 4.61125, 0.5775, 0.05525, -0.77625, -0.26825, -0.18375, 1.16375, 0.21875
33.3519310951, 1.04375, 0.8975, 0.138, -3.59625, 4.2875, 0.91, -0.041, -0.82, -0.12825, -0.28, 1.12, 0.35875
33.4021930695, 1.06125, 0.99375, 0.11175, -3.57875, 4.38375, 0.88375, -0.0235, -0.68, -0.0145, -0.2625, 1.26, 0.4725
33.452393055, 1.2275, 0.78375, -0.002, -3.4125, 4.17375, 0.77, -0.01475, -0.8725, -0.067, -0.25375, 1.0675, 0.42
33.502644062, 1.42, 0.74875, 0.05925, -3.22, 4.13875, 0.83125, -0.10225, -0.96, -0.49575, -0.34125, 0.98, -0.00875
33.5528972149, 1.23625, -1.03625, -0.11575, -3.40375, 2.35375, 0.65625, -0.15475, -0.8375, -0.35575, -0.39375, 1.1025, 0.13125
33.6030771732, 1.60375, 0.7225, -0.002, -3.03625, 4.1125, 0.77, -0.146, -0.8025, -0.2595, -0.385, 1.1375, 0.2275
33.6532330513, 1.28, 0.90625, -0.06325, -3.36, 4.29625, 0.70875, -0.006, -0.75, -0.0495, -0.245, 1.19, 0.4375
33.703384161, 1.0875, 1.27375, -0.1595, -3.5525, 4.34, 0.86625, -0.0935, -1.00375, -0.3645, -0.30625, 1.1725, 0.02625
33.7543702126, 1.21, 0.9325, 0.033, -3.43, 4.3225, 0.805, -0.076, -0.93375, -0.417, -0.315, 1.00625, 0.07
33.8045840263, 1.105, 0.95, 0.02425, -3.535, 4.34, 0.79625, -0.38225, -0.91625, -0.137, -0.62125, 1.02375, 0.35
33.8549511433, 1.34125, 0.90625, -0.09825, -3.15, 4.33125, 0.70875, 0.029, -0.75875, -0.067, -0.48125, 1.18125, 0.48125
33.9051401615, 1.21875, 0.88, -0.09825, -3.42125, 4.27, 0.67375, -0.10225, -0.9425, -0.49575, -0.34125, 0.9975, -0.00875
33.9553420544, 1.0875, 1.02, 0.09425, -3.5525, 4.41, 0.86625, 0.00275, -0.68875, -0.0845, -0.23625, 1.25125, 0.4025
34.0055441856, 1.035, 0.74, -0.1595, -3.605, 4.13, 0.6125, -0.216, -0.7325, 0.0555, -0.455, 1.2075, 0.5425
34.0557920933, 1.09625, 1.1075, 0.02425, -3.54375, 4.4975, 0.79625, -0.1635, -0.79375, -0.05825, -0.4025, 1.14625, 0.42875
34.1059861183, 1.28875, 1.16, 0.0505, -3.35125, 4.55, 0.8225, -0.1285, -0.67125, -0.207, -0.3675, 1.26875, 0.28
34.1561760902, 1.3675, 0.78375, 0.14675, -3.2725, 4.17375, 0.91875, -0.0235, -0.65375, -0.04075, -0.2625, 1.28625, 0.44625
34.2063441277, 1.16625, 1.11625, -0.02825, -3.47375, 4.50625, 0.74375, -0.0585, -0.53125, -0.07575, -0.2975, 1.40875, 0.41125
34.2565281391, 1.245, 0.78375, -0.212, -3.395, 4.17375, 0.56, -0.111, -0.79375, -0.19825, -0.35, 1.14625, 0.28875
34.3067491055, 1.245, 0.915, -0.0895, -3.395, 4.305, 0.6825, -0.1635, -0.77625, 0.143, -0.4025, 1.16375, 0.63
34.3569421768, 1.14, 0.7225, -0.037, -3.5, 4.1125, 0.735, -0.1285, -0.77625, -0.12825, -0.3675, 1.16375, 0.35875
34.4071202278, 1.32375, 0.85375, 0.04175, -3.31625, 4.24375, 0.81375, -0.15475, -0.925, -0.02325, -0.39375, 1.015, 0.46375
34.4572851658, 0.93875, 1.0025, -0.04575, -3.70125, 4.3925, 0.72625, -0.08475, -0.68, 0.04675, -0.32375, 1.26, 0.53375
34.5074779987, 1.1225, 1.11625, 0.04175, -3.5175, 4.50625, 0.81375, -0.1285, -0.8725, -0.1195, -0.3675, 1.0675, 0.3675
34.5576701164, 1.2625, 0.8975, 0.243, -3.3775, 4.2875, 1.015, 0.07275, -0.63625, -0.172, -0.16625, 1.30375, 0.315
34.6078460217, 1.1575, 1.04625, -0.04575, -3.4825, 4.43625, 0.72625, -0.146, -0.7675, -0.1195, -0.385, 1.1725, 0.3675
34.6580340862, 1.18375, 1.01125, 0.04175, -3.45625, 4.40125, 0.81375, 0.03775, -0.86375, -0.102, -0.20125, 1.07625, 0.385
34.7087950706, 0.97375, 0.81875, -0.0545, -3.36875, 4.2, 0.62125, -0.06725, -0.925, -0.33825, -0.4025, 1.25125, 0.41125
34.7595140934, 1.35875, 1.02, 0.04175, -3.28125, 4.41, 0.81375, 0.0115, -0.81125, -0.032, -0.2275, 1.12875, 0.455
34.8096790314, 1.04375, 0.81875, -0.02825, -3.59625, 4.20875, 0.74375, -0.32975, -0.82875, -0.18075, -0.56875, 1.11125, 0.30625
34.8598840237, 1.16625, 0.94125, -0.1945, -3.47375, 4.33125, 0.5775, -0.181, -0.96875, -0.137, -0.42, 0.97125, 0.35
34.9107251167, 1.2625, 1.02875, -0.002, -3.3775, 4.41875, 0.77, 0.0115, -0.645, -0.30325, -0.2275, 1.295, 0.18375
34.9609460831, 1.35875, 0.80125, -0.0545, -3.28125, 4.19125, 0.7175, -0.17225, -0.8025, -0.30325, -0.41125, 1.1375, 0.18375
35.0111470222, 1.3325, 0.88875, 0.07675, -3.3075, 4.27875, 0.84875, -0.25975, -0.6975, -0.25075, -0.49875, 1.2425, 0.23625
35.0613241196, 1.1925, 0.99375, -0.18575, -3.4475, 4.38375, 0.58625, -0.006, -0.8025, -0.18075, -0.245, 1.1375, 0.30625
35.1115021706, 1.0525, 0.97625, -0.0895, -3.5875, 4.36625, 0.6825, -0.0935, -0.925, -0.42575, -0.3325, 1.015, 0.06125
35.1616661549, 1.16625, 0.53, -0.0545, -3.47375, 3.92, 0.7175, -0.286, -1.03875, -0.16325, -0.525, 0.90125, 0.32375
35.211835146, 1.44625, 1.06375, -0.18575, -3.19375, 4.45375, 0.58625, -0.111, -0.925, -0.2595, -0.35, 1.015, 0.2275
35.2620351315, 0.9825, 1.16, -0.02825, -3.6575, 4.55, 0.74375, -0.1285, -1.07375, -0.0495, -0.3675, 0.86625, 0.4375
35.3121721745, 1.1925, 0.88875, 0.09425, -3.4475, 4.27875, 0.86625, -0.31225, -0.75875, -0.242, -0.55125, 1.18125, 0.245
35.362388134, 1.385, 0.95875, -0.002, -3.255, 4.34875, 0.77, -0.146, -0.68875, -0.28575, -0.385, 1.25125, 0.20125
35.4125800133, 1.49, 0.705, -0.0195, -3.15, 4.095, 0.7525, -0.15475, -0.9775, -0.18075, -0.39375, 0.9625, 0.30625
35.4627511501, 1.4375, 1.2825, -0.107, -3.2025, 4.6725, 0.665, 0.029, -0.7675, -0.242, -0.21, 1.1725, 0.245
35.5129051208, 0.99125, 1.08125, 0.068, -3.64875, 4.47125, 0.84, -0.2685, -0.715, 0.0905, -0.5075, 1.225, 0.5775
35.56310606, 1.14, 1.09, -0.212, -3.5, 4.48, 0.56, -0.111, -0.88125, -0.2945, -0.35, 1.05875, 0.1925
35.6133131981, 0.99125, 1.0725, 0.0155, -3.64875, 4.4625, 0.7875, -0.0235, -0.65375, -0.067, -0.2625, 1.28625, 0.42
35.6635839939, 1.41125, 1.16875, -0.01075, -3.29, 4.31375, 0.7875, 0.00275, -0.7675, -0.1195, -0.23625, 1.1725, 0.3675
35.7149200439, 1.14, 1.1775, 0.1205, -3.5, 4.5675, 0.8925, 0.0815, -1.02125, -0.14575, -0.1575, 0.91875, 0.34125
35.7651100159, 1.1575, 0.99375, 0.173, -3.4825, 4.38375, 0.945, -0.076, -0.70625, -0.242, -0.315, 1.23375, 0.245
35.8153312206, 1.37625, 0.81875, -0.04575, -3.26375, 4.20875, 0.72625, 0.029, -1.0125, 0.02925, -0.21, 0.9275, 0.51625
35.8655221462, 1.28875, 0.87125, -0.212, -3.35125, 4.26125, 0.56, -0.1985, -0.77625, 0.04675, -0.4375, 1.16375, 0.53375
35.9157102108, 1.245, 0.88875, 0.00675, -3.395, 4.27875, 0.77875, -0.03225, -1.03, -0.32075, -0.27125, 0.91, 0.16625
35.9658780098, 1.25375, 1.02875, -0.0895, -3.38625, 4.41875, 0.6825, -0.041, -0.75875, -0.0495, -0.28, 1.18125, 0.4375
36.0160591602, 1.41125, 0.92375, 0.00675, -3.22875, 4.31375, 0.77875, 0.07275, -0.74125, -0.242, -0.16625, 1.19875, 0.245
36.0662741661, 1.07875, 1.1775, 0.07675, -3.56125, 4.5675, 0.84875, -0.08475, -0.68875, -0.102, -0.32375, 1.25125, 0.385
36.1164610386, 1.455, 0.88875, -0.01075, -3.185, 4.27875, 0.76125, -0.0235, -0.72375, -0.1895, -0.2625, 1.21625, 0.2975
36.1667602062, 1.21875, 1.3175, -0.02825, -3.395, 4.3225, 0.77875, -0.2335, -0.86375, -0.25075, -0.28, 0.91875, 0.35
36.216930151, 1.455, 0.95, -0.0895, -3.185, 4.34, 0.6825, -0.0585, -0.84625, -0.2245, -0.2975, 1.09375, 0.2625
36.2670922279, 1.035, 0.705, -0.1945, -3.5, 4.38375, 0.93625, -0.146, -0.4875, -0.18075, -0.16625, 0.97125, 0.385
36.3172972202, 1.1575, 1.06375, -0.11575, -3.4825, 4.45375, 0.65625, -0.20725, -1.1, -0.18075, -0.44625, 0.84, 0.30625
36.3675711155, 1.2275, 0.81, -0.11575, -3.4125, 4.2, 0.65625, -0.0235, -0.77625, -0.12825, -0.2625, 1.16375, 0.35875
36.4177830219, 1.07, 0.7575, -0.0195, -3.57, 4.1475, 0.7525, 0.12525, -0.855, -0.207, -0.11375, 1.085, 0.28
36.4679400921, 1.30625, 0.88, -0.072, -3.33375, 4.27, 0.7, -0.01475, -0.855, -0.26825, -0.25375, 1.085, 0.21875
36.5181291103, 0.99125, 1.195, 0.19925, -3.64875, 4.585, 0.97125, -0.461, -0.9075, -0.33825, -0.7, 1.0325, 0.14875
36.5682961941, 1.28, 0.8275, -0.037, -3.36, 4.2175, 0.735, -0.13725, -1.05625, -0.09325, -0.37625, 0.88375, 0.39375
36.6185181141, 1.34125, 1.16875, -0.1595, -3.29875, 4.55875, 0.6125, -0.32975, -0.68875, -0.1895, -0.56875, 1.25125, 0.2975
36.6687190533, 1.28, 0.6875, -0.002, -3.36, 4.0775, 0.77, -0.10225, -0.855, -0.3295, -0.34125, 1.085, 0.1575
36.7189011574, 1.2275, 1.08125, 0.05925, -3.4125, 4.47125, 0.83125, -0.0235, -0.74125, -0.102, -0.2625, 1.19875, 0.385
36.7691349983, 1.37625, 0.66125, 0.02425, -3.26375, 4.05125, 0.79625, 0.064, -0.9075, -0.04075, -0.175, 1.0325, 0.44625
36.8193020821, 1.00875, 1.11625, -0.002, -3.63125, 4.50625, 0.77, 0.00275, -1.00375, 0.143, -0.23625, 0.93625, 0.63
36.8695371151, 1.00875, 0.90625, -0.1245, -3.63125, 4.29625, 0.6475, -0.03225, -0.84625, -0.02325, -0.27125, 1.09375, 0.46375
36.9197571278, 1.42, 0.94125, -0.22075, -3.22, 4.33125, 0.55125, -0.111, -0.84625, -0.2595, -0.35, 1.09375, 0.2275
36.9700291157, 1.16625, 1.02, -0.142, -3.47375, 4.41, 0.63, -0.17225, -0.9775, -0.21575, -0.41125, 0.9625, 0.27125
37.0202651024, 1.20125, 0.78375, 0.033, -3.43875, 4.17375, 0.805, -0.0935, -0.9075, -0.382, -0.3325, 1.0325, 0.105
37.0704481602, 1.21, 0.99375, 0.103, -3.43, 4.38375, 0.875, 0.099, -0.7675, 0.04675, -0.14, 1.1725, 0.53375
37.1206040382, 1.00875, 0.90625, -0.08075, -3.63125, 4.29625, 0.69125, -0.3035, -0.9425, 0.06425, -0.5425, 0.9975, 0.55125
37.1707851887, 1.14, 1.02875, -0.01075, -3.5, 4.41875, 0.76125, -0.08475, -0.74125, -0.11075, -0.32375, 1.19875, 0.37625
37.2209222317, 1.32375, 0.7225, -0.04575, -3.31625, 4.1125, 0.72625, -0.076, -0.9425, -0.58325, -0.315, 0.9975, -0.09625
37.2710850239, 1.20125, 1.1775, -0.04575, -3.43875, 4.5675, 0.72625, -0.04975, -0.74125, -0.09325, -0.28875, 1.19875, 0.39375
37.3212580681, 1.3325, 0.83625, -0.0195, -3.3075, 4.22625, 0.7525, -0.321, -0.8725, -0.18075, -0.56, 1.0675, 0.30625
37.3714210987, 1.1925, 1.23, -0.2995, -3.4475, 4.62, 0.4725, -0.13725, -0.5225, -0.277, -0.37625, 1.4175, 0.21
37.4215841293, 1.23625, 1.02, -0.0545, -3.40375, 4.41, 0.7175, -0.08475, -0.855, -0.23325, -0.32375, 1.085, 0.25375
37.4717481136, 1.37625, 0.9675, -0.002, -3.26375, 4.3575, 0.77, -0.10225, -0.70625, -0.1545, -0.34125, 1.23375, 0.3325
37.5222330093, 1.105, 1.04625, -0.0545, -3.535, 4.43625, 0.7175, 0.12525, -0.8725, -0.19825, -0.11375, 1.0675, 0.28875
37.5738940239, 1.07, 1.01125, 0.04175, -3.57, 4.40125, 0.81375, -0.27725, -0.72375, -0.242, -0.51625, 1.21625, 0.245
37.6240711212, 1.2975, 0.915, 0.068, -3.3425, 4.305, 0.84, -0.18975, -0.785, -0.23325, -0.42875, 1.155, 0.25375
37.6742260456, 1.2275, 0.81875, -0.1245, -3.4125, 4.20875, 0.6475, -0.0585, -0.75, -0.11075, -0.2975, 1.19, 0.37625
37.7243750095, 1.0, 0.9325, -0.23825, -3.64, 4.3225, 0.53375, 0.0465, -0.75, -0.207, -0.1925, 1.19, 0.28
37.774613142, 1.2975, 0.67, -0.09825, -3.3425, 4.06, 0.67375, -0.0235, -0.75875, -0.032, -0.2625, 1.18125, 0.455
37.8247981071, 1.315, 0.6175, -0.0545, -3.325, 4.0075, 0.7175, 0.09025, -0.75, -0.14575, -0.14875, 1.19, 0.34125
37.8767011166, 1.2975, 1.06375, -0.16825, -3.3425, 4.45375, 0.60375, -0.321, -0.65375, 0.04675, -0.56, 1.28625, 0.53375
37.9268670082, 1.2975, 0.95, -0.02825, -3.3425, 4.34, 0.74375, -0.041, -0.81125, -0.19825, -0.28, 1.12875, 0.28875
37.9770140648, 1.32375, 0.88, -0.25575, -3.31625, 4.27, 0.51625, -0.06725, -0.75875, -0.40825, -0.30625, 1.18125, 0.07875
38.0272390842, 1.32375, 1.2125, -0.072, -3.31625, 4.6025, 0.7, -0.24225, -0.96, -0.23325, -0.48125, 0.98, 0.25375
38.0774381161, 1.48125, 0.985, -0.1245, -3.15875, 4.375, 0.6475, -0.10225, -0.67125, 0.038, -0.34125, 1.26875, 0.525
38.1276640892, 1.4725, 0.9675, -0.177, -3.1675, 4.3575, 0.595, -0.20725, -0.84625, -0.1195, -0.44625, 1.09375, 0.3675
38.1778991222, 1.20125, 1.02875, 0.05925, -3.43875, 4.41875, 0.83125, -0.391, -0.8725, -0.02325, -0.63, 1.0675, 0.46375
38.2281160355, 1.32375, 0.8275, -0.25575, -3.31625, 4.2175, 0.51625, -0.1985, -0.75, 0.143, -0.4375, 1.19, 0.63
38.2783601284, 1.34125, 0.73125, -0.20325, -3.29875, 4.12125, 0.56875, -0.146, -0.60125, -0.277, -0.385, 1.33875, 0.21
38.328608036, 1.18375, 0.8975, -0.0545, -3.45625, 4.2875, 0.7175, -0.34725, -1.03875, -0.28575, -0.58625, 0.90125, 0.20125
38.3788630962, 1.18375, 1.09875, -0.072, -3.45625, 4.48875, 0.7, -0.1285, -0.785, -0.0145, -0.3675, 1.155, 0.4725
38.4290311337, 1.30625, 0.81, 0.0505, -3.33375, 4.2, 0.8225, -0.15475, -0.88125, -0.28575, -0.39375, 1.05875, 0.20125
38.4792430401, 1.2275, 0.705, -0.142, -3.4125, 4.095, 0.63, -0.17225, -0.7675, -0.102, -0.41125, 1.1725, 0.385
38.5294442177, 1.3325, 0.81875, -0.1945, -3.3075, 4.20875, 0.5775, -0.10225, -0.995, 0.0905, -0.34125, 0.945, 0.5775
38.5796182156, 1.21, 1.23875, -0.072, -3.43, 4.62875, 0.7, -0.181, -0.995, -0.137, -0.42, 0.945, 0.35
38.6298220158, 1.2275, 0.74875, -0.16825, -3.17625, 4.2875, 0.69125, -0.18975, -0.84625, -0.04075, -0.2275, 0.9975, 0.595
38.6800191402, 1.1225, 1.08125, -0.06325, -3.5175, 4.47125, 0.70875, -0.3035, -0.89875, -0.05825, -0.5425, 1.04125, 0.42875
38.7302091122, 1.32375, 0.8625, 0.0855, -3.31625, 4.2525, 0.8575, -0.31225, -0.68, -0.4345, -0.55125, 1.26, 0.0525
38.7803680897, 1.35, 0.76625, 0.278, -3.29, 4.15625, 1.05, -0.0235, -0.7675, -0.382, -0.2625, 1.1725, 0.105
38.8305830956, 1.455, 0.99375, -0.09825, -3.185, 4.38375, 0.67375, -0.0585, -0.715, -0.04075, -0.2975, 1.225, 0.44625
38.8808870316, 1.20125, 1.055, -0.2295, -3.43875, 4.445, 0.5425, -0.1985, -0.89875, -0.312, -0.4375, 1.04125, 0.175
38.9311032295, 1.1225, 0.8275, -0.06325, -3.5175, 4.2175, 0.70875, -0.041, -0.75, 0.06425, -0.28, 1.19, 0.55125
38.9812870026, 1.2625, 1.01125, -0.06325, -3.3775, 4.40125, 0.70875, -0.15475, -0.88125, -0.19825, -0.39375, 1.05875, 0.28875
39.0314941406, 1.2625, 0.95, -0.1595, -3.3775, 4.34, 0.6125, -0.181, -0.96875, -0.312, -0.42, 0.97125, 0.175
39.0817680359, 1.20125, 1.0025, 0.00675, -3.43875, 4.3925, 0.77875, -0.27725, -0.54875, -0.11075, -0.51625, 1.39125, 0.37625
39.131925106, 1.16625, 0.775, 0.0505, -3.47375, 4.165, 0.8225, -0.111, -0.81125, -0.19825, -0.35, 1.12875, 0.28875
39.1820721626, 1.245, 0.8625, -0.08075, -3.395, 4.2525, 0.69125, -0.11975, -0.68, -0.242, -0.35875, 1.26, 0.245
39.2322130203, 1.20125, 0.81, -0.1245, -3.43875, 4.2, 0.6475, -0.0935, -0.8375, -0.12825, -0.3325, 1.1025, 0.35875
39.2824110985, 1.48125, 0.845, 0.04175, -3.15875, 4.235, 0.81375, 0.029, -0.81125, -0.30325, -0.21, 1.12875, 0.18375
39.3325891495, 1.245, 0.985, -0.177, -3.395, 4.375, 0.595, -0.1635, -0.96, -0.2945, -0.4025, 0.98, 0.1925
39.3827660084, 1.11375, 0.74875, -0.11575, -3.52625, 4.13875, 0.65625, -0.2685, -0.9075, -0.14575, -0.5075, 1.0325, 0.34125
39.4329531193, 1.18375, 0.565, 0.0155, -3.45625, 3.955, 0.7875, -0.20725, -0.9425, -0.3645, -0.44625, 0.9975, 0.1225
39.4831600189, 1.13125, 0.94125, -0.1595, -3.50875, 4.33125, 0.6125, -0.181, -0.68875, -0.242, -0.42, 1.25125, 0.245
39.5333061218, 0.97375, 0.80125, 0.033, -3.66625, 4.19125, 0.805, -0.15475, -0.855, -0.04075, -0.39375, 1.085, 0.44625
39.5835270882, 1.315, 0.845, -0.02825, -3.325, 4.235, 0.74375, -0.03225, -0.98625, -0.242, -0.27125, 0.95375, 0.245
39.6337070465, 1.13125, 0.80125, -0.11575, -3.50875, 4.19125, 0.65625, -0.006, -0.74125, -0.067, -0.245, 1.19875, 0.42
39.6839461327, 1.14, 0.775, 0.07675, -3.5, 4.165, 0.84875, -0.1985, -0.79375, -0.09325, -0.4375, 1.14625, 0.39375
39.7341811657, 1.30625, 0.94125, 0.05925, -3.33375, 4.33125, 0.83125, 0.0465, -0.65375, -0.12825, -0.1925, 1.28625, 0.35875
39.7843852043, 1.00875, -1.045, -0.02825, -3.63125, 2.345, 0.74375, -0.22475, -0.6975, 0.073, -0.46375, 1.2425, 0.56
39.8345770836, 1.21, 0.81875, -0.002, -3.43, 4.20875, 0.77, -0.13725, -0.575, -0.172, -0.37625, 1.365, 0.315
39.8847491741, 1.175, 0.67875, -0.142, -3.465, 4.06875, 0.63, -0.0935, -0.84625, 0.01175, -0.3325, 1.09375, 0.49875
39.9349021912, 1.18375, 0.8975, 0.02425, -3.45625, 4.2875, 0.79625, -0.1985, -0.8375, -0.0145, -0.4375, 1.1025, 0.4725
39.9851100445, 1.07, 1.04625, -0.0895, -3.57, 4.43625, 0.6825, -0.20725, -0.89, 0.073, -0.44625, 1.05, 0.56
40.0352721214, 1.44625, 0.74, 0.033, -3.19375, 4.13, 0.805, -0.18975, -0.89875, -0.0845, -0.42875, 1.04125, 0.4025
40.0854990482, 1.07875, 0.87125, 0.1905, -3.56125, 4.26125, 0.9625, -0.17225, -0.88125, -0.07575, -0.41125, 1.05875, 0.41125
40.1357800961, 1.28, 0.99375, -0.037, -3.36, 4.38375, 0.735, 0.10775, -0.88125, -0.26825, -0.13125, 1.05875, 0.21875
40.1860141754, 1.06125, 0.99375, -0.04575, -3.57875, 4.38375, 0.72625, -0.111, -0.8725, 0.003, -0.35, 1.0675, 0.49
40.2361960411, 1.1225, 0.94125, -0.06325, -3.5175, 4.33125, 0.70875, -0.251, -0.96, -0.39075, -0.49, 0.98, 0.09625
40.2864069939, 1.1575, 0.80125, -0.0545, -3.4825, 4.19125, 0.7175, -0.111, -0.54875, 0.003, -0.35, 1.39125, 0.49
40.3365821838, 1.0, 0.92375, 0.00675, -3.64, 4.31375, 0.77875, 0.1165, -0.8375, -0.1895, -0.1225, 1.1025, 0.2975
40.387704134, 1.1575, 0.9325, 0.02425, -3.4825, 4.3225, 0.79625, -0.2335, -0.95125, -0.12825, -0.4725, 0.98875, 0.35875
40.4379110336, 1.105, 1.02875, -0.20325, -3.535, 4.41875, 0.56875, -0.146, -0.8725, -0.242, -0.385, 1.0675, 0.245
40.488117218, 0.92125, 1.0375, 0.068, -3.71875, 4.4275, 0.84, -0.076, -1.135, -0.522, -0.315, 0.805, -0.035
40.5383059978, 1.16625, 0.90625, -0.04575, -3.47375, 4.29625, 0.72625, -0.111, -0.785, 0.038, -0.35, 1.155, 0.525
40.5885472298, 1.32375, 0.81, 0.0155, -3.31625, 4.2, 0.7875, -0.20725, -0.95125, 0.09925, -0.44625, 0.98875, 0.58625
40.6387631893, 1.1575, 0.8975, -0.2995, -3.4825, 4.2875, 0.4725, 0.029, -1.07375, -0.347, -0.21, 0.86625, 0.14
40.6889691353, 1.23625, 0.88875, -0.2645, -3.40375, 4.27875, 0.5075, -0.251, -0.925, -0.172, -0.49, 1.015, 0.315
40.739164114, 1.32375, 1.04625, 0.0155, -3.31625, 4.43625, 0.7875, -0.076, -0.8375, -0.07575, -0.315, 1.1025, 0.41125
40.7893970013, 1.00875, 0.8275, -0.32575, -3.63125, 4.2175, 0.44625, -0.08475, -0.82875, -0.28575, -0.32375, 1.11125, 0.20125
40.8395721912, 1.1225, 0.9325, 0.068, -3.5175, 4.3225, 0.84, 0.099, -0.95125, -0.26825, -0.14, 0.98875, 0.21875
40.8898441792, 1.14, 1.15125, -0.13325, -3.5, 4.54125, 0.63875, 0.2215, -0.88125, -0.04075, -0.0175, 1.05875, 0.44625
40.940251112, 1.09625, 0.80125, -0.01075, -3.54375, 4.19125, 0.76125, -0.01475, -0.995, -0.2945, -0.25375, 0.945, 0.1925
40.9905400276, 1.3675, 0.90625, -0.04575, -3.2725, 4.29625, 0.72625, -0.146, -0.75, -0.172, -0.385, 1.19, 0.315
41.04078722, 1.035, 1.09, 0.18175, -3.605, 4.48, 0.95375, -0.04975, -1.1875, -0.18075, -0.28875, 0.7525, 0.30625
41.091012001, 1.25375, 0.8275, -0.09825, -3.38625, 4.2175, 0.67375, -0.251, -0.645, -0.1895, -0.49, 1.295, 0.2975
41.14123106, 1.18375, 1.15125, -0.107, -3.45625, 4.54125, 0.665, -0.27725, -0.61, 0.11675, -0.51625, 1.33, 0.60375
41.1914391518, 1.21, 1.02, -0.04575, -3.43, 4.41, 0.72625, -0.17225, -1.00375, -0.28575, -0.41125, 0.93625, 0.20125
41.2416059971, 1.30625, 0.8975, -0.09825, -3.33375, 4.2875, 0.67375, -0.06725, -1.03875, 0.073, -0.30625, 0.90125, 0.56
41.2917881012, 1.06125, 1.02875, -0.0545, -3.57875, 4.41875, 0.7175, -0.31225, -0.84625, -0.11075, -0.55125, 1.09375, 0.37625
41.3419630527, 1.25375, 1.09875, -0.20325, -3.38625, 4.48875, 0.56875, 0.0115, -0.95125, -0.33825, -0.2275, 0.98875, 0.14875
41.3921461105, 1.25375, 0.85375, -0.107, -3.38625, 4.24375, 0.665, 0.05525, -0.60125, -0.00575, -0.18375, 1.33875, 0.48125
41.4423391819, 1.07, 0.85375, -0.107, -3.57, 4.24375, 0.665, -0.13725, -0.6275, 0.0205, -0.37625, 1.3125, 0.5075
41.492552042, 1.07875, 1.27375, -0.142, -3.56125, 4.66375, 0.63, -0.076, -0.81125, -0.0495, -0.315, 1.12875, 0.4375
41.5427310467, 1.21875, 0.97625, 0.00675, -3.42125, 4.36625, 0.77875, -0.18975, -0.75875, -0.04075, -0.42875, 1.18125, 0.44625
41.5929372311, 1.14875, 0.985, -0.09825, -3.49125, 4.375, 0.67375, -0.08475, -0.72375, -0.1195, -0.32375, 1.21625, 0.3675
41.6430912018, 1.105, 0.87125, -0.282, -3.535, 4.26125, 0.49, 0.00275, -0.70625, -0.172, -0.23625, 1.23375, 0.315
41.6933071613, 1.20125, 1.04625, -0.0895, -3.43875, 4.43625, 0.6825, 0.05525, -1.03, -0.172, -0.18375, 0.91, 0.315
41.743489027, 1.20125, 1.0725, -0.0545, -3.43875, 4.4625, 0.7175, -0.0585, -0.65375, -0.487, -0.2975, 1.28625, 0.0
41.7936561108, 1.32375, 0.67, 0.103, -3.31625, 4.06, 0.875, -0.111, -0.86375, 0.2305, -0.35, 1.07625, 0.7175
41.8438432217, 1.2275, 0.985, -0.32575, -3.4125, 4.375, 0.44625, -0.0235, -0.7675, 0.0555, -0.2625, 1.1725, 0.5425
41.8940370083, 1.23625, 1.1425, 0.12925, -3.40375, 4.5325, 0.90125, -0.36475, -0.68, 0.02925, -0.60375, 1.26, 0.51625
41.9442510605, 1.1925, 0.705, 0.00675, -3.4475, 4.095, 0.77875, -0.1635, -0.6625, -0.0495, -0.4025, 1.2775, 0.4375
41.995839119, 1.21875, 0.845, 0.0855, -3.42125, 4.235, 0.8575, -0.41725, -0.86375, -0.05825, -0.65625, 1.07625, 0.42875
42.0460410118, 1.30625, 0.985, -0.02825, -3.33375, 4.375, 0.74375, -0.2685, -0.68, -0.2245, -0.5075, 1.26, 0.2625
42.096252203, 1.13125, 0.8975, -0.107, -3.50875, 4.2875, 0.665, -0.10225, -0.93375, -0.25075, -0.34125, 1.00625, 0.23625
42.1464431286, 1.07, 0.88875, 0.09425, -3.57, 4.27875, 0.86625, -0.13725, -0.8375, -0.23325, -0.37625, 1.1025, 0.25375
42.1966650486, 1.035, 0.95, 0.033, -3.605, 4.34, 0.805, -0.06725, -0.93375, -0.18075, -0.30625, 1.00625, 0.30625
42.2468881607, 1.25375, 0.88, -0.0195, -3.38625, 4.27, 0.7525, -0.1985, -0.785, -0.172, -0.4375, 1.155, 0.315
42.2970700264, 1.32375, 1.15125, -0.072, -3.31625, 4.54125, 0.7, -0.146, -0.93375, -0.1545, -0.385, 1.00625, 0.3325
42.3472611904, 1.32375, 1.06375, -0.06325, -3.31625, 4.45375, 0.70875, 0.0815, -0.89, -0.1895, -0.1575, 1.05, 0.2975
42.3974671364, 0.95625, 0.94125, -0.08075, -3.68375, 4.33125, 0.69125, 0.134, -0.7675, -0.312, -0.105, 1.1725, 0.175
42.4476439953, 1.0, 0.76625, 0.2255, -3.64, 4.15625, 0.9975, -0.04975, -0.68, -0.32075, -0.28875, 1.26, 0.16625
42.4978990555, 1.2275, 0.9325, 0.00675, -3.4125, 4.3225, 0.77875, 0.0115, -0.70625, -0.12825, -0.2275, 1.23375, 0.35875
42.54809618, 1.11375, 0.99375, 0.09425, -3.52625, 4.38375, 0.86625, -0.216, -0.8025, 0.0205, -0.455, 1.1375, 0.5075
42.5984930992, 1.18375, 0.78375, 0.0155, -3.47375, 4.48875, 0.51625, -0.041, -0.79375, -0.2945, -0.28, 1.14625, 0.1925
42.6493930817, 1.34125, 0.74, -0.072, -3.29875, 4.13, 0.7, -0.1635, -0.75, -0.242, -0.4025, 1.19, 0.245
42.6995642185, 1.27125, 1.2475, 0.2255, -3.36875, 4.6375, 0.9975, -0.10225, -0.6275, -0.33825, -0.34125, 1.3125, 0.14875
42.7497341633, 1.0175, 0.9325, -0.107, -3.6225, 4.3225, 0.665, -0.0935, -1.05625, -0.172, -0.3325, 0.88375, 0.315
42.799973011, 1.105, 1.0025, -0.29075, -3.535, 4.3925, 0.48125, -0.22475, -1.03875, -0.40825, -0.46375, 0.90125, 0.07875
42.8501341343, 1.0525, 1.1425, -0.0195, -3.5875, 4.5325, 0.7525, -0.25975, -0.785, -0.0145, -0.49875, 1.155, 0.4725
42.9004051685, 1.1575, 0.775, -0.04575, -3.4825, 4.165, 0.72625, -0.1635, -0.9425, -0.172, -0.4025, 0.9975, 0.315
42.9506080151, 0.9825, 0.87125, -0.08075, -3.6575, 4.26125, 0.69125, 0.12525, -1.0125, 0.02925, -0.11375, 0.9275, 0.51625
43.0007641315, 1.30625, 0.8625, 0.103, -3.33375, 4.2525, 0.875, 0.029, -0.77625, -0.25075, -0.21, 1.16375, 0.23625
43.0509722233, 1.23625, 1.1425, 0.0505, -3.40375, 4.5325, 0.8225, -0.111, -0.84625, -0.14575, -0.35, 1.09375, 0.34125
43.1011722088, 1.11375, 0.9675, -0.0545, -3.52625, 4.3575, 0.7175, -0.04975, -1.0125, -0.46075, -0.28875, 0.9275, 0.02625
43.1513991356, 1.105, 0.94125, -0.01075, -3.3775, 4.47125, 0.83125, -0.04975, -0.93375, -0.04075, -0.28875, 1.00625, 0.44625
43.202368021, 1.21875, 0.88875, 0.0155, -3.42125, 4.27875, 0.7875, -0.1285, -0.42625, -0.1545, -0.3675, 1.51375, 0.3325
43.2525892258, 1.07875, 0.9675, 0.033, -3.56125, 4.3575, 0.805, 0.1515, -0.89, -0.21575, -0.0875, 1.05, 0.27125
43.3027820587, 1.27125, 0.67, -0.11575, -3.36875, 4.06, 0.65625, 0.09025, -0.98625, -0.3295, -0.14875, 0.95375, 0.1575
43.3529992104, 1.14, 1.09, -0.16825, -3.5, 4.48, 0.60375, 0.0115, -0.82875, -0.32075, -0.2275, 1.11125, 0.16625
43.4032831192, 1.25375, 1.09, -0.0545, -3.38625, 4.48, 0.7175, 0.17775, -0.77625, -0.2945, -0.06125, 1.16375, 0.1925
43.4535200596, 1.39375, 0.8275, -0.20325, -3.24625, 4.2175, 0.56875, -0.04975, -0.86375, -0.19825, -0.28875, 1.07625, 0.28875
43.5036931038, 1.315, 0.90625, 0.05925, -3.325, 4.29625, 0.83125, 0.12525, -0.77625, -0.12825, -0.11375, 1.16375, 0.35875
43.5538511276, 1.14, 0.8975, -0.25575, -3.5, 4.2875, 0.51625, -0.0935, -0.855, -0.09325, -0.3325, 1.085, 0.39375
43.6040110588, 1.32375, 0.6525, 0.12925, -3.31625, 4.0425, 0.90125, -0.1285, -0.91625, -0.102, -0.3675, 1.02375, 0.385
43.6541662216, 1.14, 1.1425, 0.0505, -3.5, 4.5325, 0.8225, 0.0115, -0.6275, -0.0845, -0.2275, 1.3125, 0.4025
43.7043821812, 1.0875, 0.87125, 0.0855, -3.5525, 4.26125, 0.8575, -0.27725, -0.8025, -0.23325, -0.51625, 1.1375, 0.25375
43.7545650005, 1.30625, 1.0375, -0.072, -3.33375, 4.4275, 0.7, -0.111, -0.82, -0.11075, -0.35, 1.12, 0.37625
43.8047580719, 1.21, 0.95, 0.033, -3.43, 4.34, 0.805, -0.286, -0.93375, -0.032, -0.525, 1.00625, 0.455
43.8549690247, 1.245, 0.8625, -0.08075, -3.395, 4.2525, 0.69125, -0.01475, -0.67125, -0.37325, -0.25375, 1.26875, 0.11375
43.9051601887, 1.105, 1.02875, -0.1595, -3.535, 4.41875, 0.6125, 0.0465, -0.7325, -0.09325, -0.1925, 1.2075, 0.39375
43.9553341866, 1.06125, 0.7925, -0.18575, -3.57875, 4.1825, 0.58625, -0.0585, -0.91625, -0.46075, -0.2975, 1.02375, 0.02625
44.0055661201, 1.51625, 0.73125, 0.09425, -3.12375, 4.12125, 0.86625, -0.251, -0.65375, -0.11075, -0.49, 1.28625, 0.37625
44.055740118, 1.4025, 0.64375, -0.037, -3.2375, 4.03375, 0.735, -0.111, -0.75, 0.16925, -0.35, 1.19, 0.65625
44.1059172153, 1.385, 0.78375, -0.11575, -3.255, 4.17375, 0.65625, -0.1985, -0.8025, -0.21575, -0.4375, 1.1375, 0.27125
44.1561050415, 1.21, 0.775, -0.142, -3.43, 4.165, 0.63, -0.0235, -0.925, -0.07575, -0.2625, 1.015, 0.41125
44.2062840462, 1.18375, 1.0375, -0.072, -3.45625, 4.4275, 0.7, -0.31225, -0.925, -0.3995, -0.55125, 1.015, 0.0875
44.2565090656, 1.14, 1.02875, -0.002, -3.5, 4.41875, 0.77, -0.24225, -0.6975, -0.19825, -0.48125, 1.2425, 0.28875
44.3067650795, 1.53375, 0.80125, -0.15075, -3.10625, 4.19125, 0.62125, -0.10225, -0.8025, -0.30325, -0.34125, 1.1375, 0.18375
44.3569130898, 1.0875, 0.71375, -0.037, -3.5525, 4.10375, 0.735, -0.18975, -0.61, -0.28575, -0.42875, 1.33, 0.20125
44.4071121216, 1.27125, 0.8975, 0.09425, -3.36875, 4.2875, 0.86625, -0.146, -0.95125, -0.11075, -0.385, 0.98875, 0.37625
44.4572980404, 1.2625, 0.6875, 0.00675, -3.3775, 4.0775, 0.77875, 0.064, -0.7675, -0.1895, -0.175, 1.1725, 0.2975
44.5075030327, 0.97375, 1.2825, -0.0895, -3.66625, 4.6725, 0.6825, -0.01475, -0.8725, -0.09325, -0.25375, 1.0675, 0.39375
44.5576751232, 1.02625, 0.95, -0.0195, -3.61375, 4.34, 0.7525, -0.006, -0.89, -0.26825, -0.245, 1.05, 0.21875
44.6078600883, 1.27125, 0.915, -0.0545, -3.36875, 4.305, 0.7175, -0.1985, -0.70625, -0.21575, -0.4375, 1.23375, 0.27125
44.6580340862, 1.20125, 1.08125, -0.18575, -3.43875, 4.47125, 0.58625, -0.1985, -0.49625, -0.242, -0.4375, 1.44375, 0.245
44.7082850933, 1.23625, 0.85375, 0.04175, -3.40375, 4.24375, 0.81375, 0.064, -1.065, -0.16325, -0.175, 0.875, 0.32375
44.7584130764, 1.1225, 0.7575, 0.00675, -3.5175, 4.1475, 0.77875, -0.146, -0.93375, -0.242, -0.385, 1.00625, 0.245
44.8086190224, 1.14, 1.08125, 0.09425, -3.5, 4.47125, 0.86625, -0.076, -0.9075, -0.16325, -0.315, 1.0325, 0.32375
44.8588252068, 1.245, 0.94125, -0.02825, -3.395, 4.33125, 0.74375, 0.1865, -1.1, -0.0495, -0.0525, 0.84, 0.4375
44.9090840816, 1.27125, 0.88, -0.18575, -3.36875, 4.27, 0.58625, -0.13725, -0.47, -0.137, -0.37625, 1.47, 0.35
44.9593191147, 1.18375, 0.87125, -0.02825, -3.45625, 4.26125, 0.74375, 0.064, -0.79375, -0.172, -0.175, 1.14625, 0.315
45.0094971657, 1.25375, 1.04625, -0.1245, -3.38625, 4.43625, 0.6475, 0.00275, -0.8375, 0.06425, -0.23625, 1.1025, 0.55125
45.0596961975, 1.21, 0.95875, -0.037, -3.43, 4.34875, 0.735, 0.05525, -0.96875, -0.00575, -0.18375, 0.97125, 0.48125
45.1099050045, 1.49, 0.94125, 0.04175, -3.15, 4.33125, 0.81375, 0.03775, -0.88125, 0.0905, -0.20125, 1.05875, 0.5775
45.1601121426, 1.27125, 0.915, -0.002, -3.36875, 4.305, 0.77, -0.181, -0.75, -0.2245, -0.42, 1.19, 0.2625
45.210321188, 1.28875, 1.1425, 0.02425, -3.35125, 4.5325, 0.79625, -0.251, -0.9075, -0.26825, -0.49, 1.0325, 0.21875
45.2605361938, 1.2975, 0.8275, -0.06325, -3.3425, 4.2175, 0.70875, 0.029, -0.95125, -0.23325, -0.21, 0.98875, 0.25375
45.3107800484, 1.07, 1.22125, -0.01075, -3.57, 4.61125, 0.76125, -0.0585, -0.9075, -0.16325, -0.2975, 1.0325, 0.32375
45.3610441685, 0.90375, 0.83625, -0.0195, -3.73625, 4.22625, 0.7525, -0.181, -0.63625, -0.137, -0.42, 1.30375, 0.35
45.4112160206, 1.14, 1.09, 0.09425, -3.5, 4.48, 0.86625, -0.286, -0.8025, -0.33825, -0.525, 1.1375, 0.14875
45.4614500999, 1.14, 1.23875, 0.173, -3.5, 4.62875, 0.945, -0.3385, -0.77625, -0.2245, -0.5775, 1.16375, 0.2625
45.511755228, 0.9125, 0.67, 0.05925, -3.7275, 4.06, 0.83125, -0.006, -0.61, -0.26825, -0.245, 1.33, 0.21875
45.5620491505, 1.1925, 0.8275, -0.09825, -3.4475, 4.2175, 0.67375, -0.20725, -1.02125, -0.1195, -0.44625, 0.91875, 0.3675
45.6122791767, 1.2625, 1.13375, -0.08075, -3.3775, 4.52375, 0.69125, -0.06725, -1.03, 0.13425, -0.30625, 0.91, 0.62125
45.6625051498, 1.28875, 0.845, -0.15075, -3.35125, 4.235, 0.62125, -0.08475, -0.8375, 0.0555, -0.32375, 1.1025, 0.5425
45.7127320766, 1.18375, 1.0375, 0.1905, -3.45625, 4.4275, 0.9625, -0.0935, -0.91625, -0.102, -0.3325, 1.02375, 0.385
45.7629551888, 1.3325, 0.66125, -0.08075, -3.3075, 4.05125, 0.69125, -0.0235, -0.9425, -0.37325, -0.2625, 0.9975, 0.11375
45.8138670921, 1.28, 1.01125, 0.033, -3.36, 4.40125, 0.805, -0.181, -0.79375, -0.37325, -0.42, 1.14625, 0.11375
45.8644771576, 0.965, 0.8975, -0.037, -3.675, 4.2875, 0.735, -0.25975, -0.82, 0.06425, -0.49875, 1.12, 0.55125
45.9150290489, 1.3675, 0.6525, -0.0545, -3.2725, 4.0425, 0.7175, 0.169, -0.74125, -0.07575, -0.07, 1.19875, 0.41125
45.9652740955, 1.06125, 1.125, -0.18575, -3.57875, 4.515, 0.58625, -0.36475, -0.88125, -0.11075, -0.60375, 1.05875, 0.37625
46.0154771805, 1.35, 0.81, -0.23825, -3.29, 4.2, 0.53375, -0.11975, -0.68, -0.23325, -0.35875, 1.26, 0.25375
46.0657122135, 1.04375, 1.0025, 0.0855, -3.59625, 4.3925, 0.8575, -0.20725, -0.91625, -0.00575, -0.44625, 1.02375, 0.48125
46.1159331799, 1.20125, 0.87125, 0.07675, -3.43875, 4.26125, 0.84875, -0.24225, -0.715, -0.04075, -0.48125, 1.225, 0.44625
46.1661550999, 1.18375, 0.99375, -0.002, -3.45625, 4.38375, 0.77, -0.1635, -0.81125, -0.2245, -0.4025, 1.12875, 0.2625
46.2163751125, 1.3325, 0.8275, -0.13325, -3.3075, 4.2175, 0.63875, 0.16025, -0.88125, -0.1545, -0.07875, 1.05875, 0.3325
46.2665960789, 1.14, 0.9325, -0.072, -3.5, 4.3225, 0.7, -0.08475, -0.82, 0.02925, -0.32375, 1.12, 0.51625
46.3168132305, 1.28, 0.88875, -0.037, -3.36, 4.27875, 0.735, -0.076, -0.68, -0.14575, -0.315, 1.26, 0.34125
46.3670752048, 1.42, 0.92375, -0.06325, -3.22, 4.31375, 0.70875, -0.13725, -0.89, -0.2245, -0.37625, 1.05, 0.2625
46.4173061848, 1.53375, 0.71375, -0.177, -3.10625, 4.10375, 0.595, -0.01475, -0.8725, -0.0495, -0.25375, 1.0675, 0.4375
46.4675080776, 1.25375, 0.775, 0.0155, -3.38625, 4.165, 0.7875, -0.06725, -0.95125, -0.1195, -0.30625, 0.98875, 0.3675
46.5177180767, 1.23625, 1.25625, 0.1555, -3.40375, 4.64625, 0.9275, -0.041, -0.7325, -0.26825, -0.28, 1.2075, 0.21875
46.5678870678, 1.06125, 1.055, 0.07675, -3.57875, 4.445, 0.84875, -0.15475, -0.785, -0.19825, -0.39375, 1.155, 0.28875
46.618060112, 1.30625, 0.71375, -0.09825, -3.33375, 4.10375, 0.67375, -0.146, -0.89, -0.05825, -0.385, 1.05, 0.42875
46.6682200432, 1.105, 0.85375, 0.05925, -3.57, 4.45375, 0.63875, -0.06725, -0.67125, -0.347, -0.315, 0.93625, 0.18375
46.7183971405, 1.09625, 0.83625, 0.11175, -3.54375, 4.22625, 0.88375, 0.0115, -0.715, -0.19825, -0.2275, 1.225, 0.28875
46.7686131001, 1.21875, 0.67875, -0.037, -3.42125, 4.06875, 0.735, 0.1165, -0.72375, -0.49575, -0.1225, 1.21625, -0.00875
46.8187861443, 1.1575, 0.95875, -0.0895, -3.4825, 4.34875, 0.6825, 0.00275, -0.7325, 0.0555, -0.23625, 1.2075, 0.5425
46.8689701557, 1.2625, 0.92375, 0.00675, -3.3775, 4.31375, 0.77875, -0.1635, -0.79375, -0.49575, -0.4025, 1.14625, -0.00875
46.9192512035, 0.92125, 0.88875, 0.04175, -3.71875, 4.27875, 0.81375, -0.3035, -0.72375, -0.32075, -0.5425, 1.21625, 0.16625
46.9694271088, 1.1575, 0.8625, -0.13325, -3.4825, 4.2525, 0.63875, -0.1285, -0.7325, -0.21575, -0.3675, 1.2075, 0.27125
47.0195801258, 1.28875, 0.8975, -0.107, -3.35125, 4.2875, 0.665, -0.24225, -0.855, -0.04075, -0.48125, 1.085, 0.44625
47.069781065, 1.28875, 0.7925, -0.037, -3.35125, 4.1825, 0.735, -0.06725, -0.91625, -0.067, -0.30625, 1.02375, 0.42
47.1199791431, 1.11375, 0.985, -0.01075, -3.52625, 4.375, 0.76125, -0.15475, -0.75875, -0.137, -0.39375, 1.18125, 0.35
47.1702480316, 1.14875, 0.97625, -0.0895, -3.49125, 4.36625, 0.6825, -0.15475, -0.855, -0.1895, -0.39375, 1.085, 0.2975
47.2205061913, 1.0875, 0.8975, 0.068, -3.5525, 4.2875, 0.84, -0.006, -0.9075, -0.16325, -0.245, 1.0325, 0.32375
47.2707600594, 1.18375, 0.83625, -0.002, -3.45625, 4.22625, 0.77, -0.18975, -0.9075, -0.16325, -0.42875, 1.0325, 0.32375
47.321516037, 1.18375, 0.81875, 0.068, -3.49125, 3.99875, 0.70875, -0.3385, -0.8375, -0.09325, -0.4375, 1.015, 0.525
47.3719131947, 1.1925, 0.95875, -0.06325, -3.4475, 4.34875, 0.70875, -0.46975, -0.8375, -0.25075, -0.70875, 1.1025, 0.23625
47.4220821857, 1.1925, 1.1075, 0.09425, -3.4475, 4.4975, 0.86625, -0.18975, -0.98625, -0.242, -0.42875, 0.95375, 0.245
47.4722840786, 1.2625, 1.09, -0.08075, -3.3775, 4.48, 0.69125, -0.286, -0.7325, -0.30325, -0.525, 1.2075, 0.18375
47.52247715, 1.32375, 0.8975, 0.068, -3.31625, 4.2875, 0.84, -0.36475, -1.17, -0.05825, -0.60375, 0.77, 0.42875
47.5726420879, 1.315, -1.0975, -0.142, -3.325, 2.2925, 0.63, -0.22475, -0.89875, -0.25075, -0.46375, 1.04125, 0.23625
47.6228580475, 1.21875, 0.7925, -0.01075, -3.42125, 4.1825, 0.76125, -0.29475, -0.6975, -0.44325, -0.53375, 1.2425, 0.04375
47.6730341911, 1.27125, 0.7575, 0.068, -3.36875, 4.1475, 0.84, 0.07275, -1.07375, 0.06425, -0.16625, 0.86625, 0.55125
47.7232429981, 1.34125, 0.67875, 0.138, -3.29875, 4.06875, 0.91, -0.146, -0.79375, -0.207, -0.385, 1.14625, 0.28
47.7734901905, 1.27125, 0.9675, -0.02825, -3.36875, 4.3575, 0.74375, 0.12525, -0.95125, -0.2245, -0.53375, 1.2075, 0.11375
47.8239901066, 1.37625, 0.7925, -0.212, -3.26375, 4.1825, 0.56, -0.216, -0.925, -0.2595, -0.455, 1.015, 0.2275
47.8743262291, 1.18375, 1.1425, 0.033, -3.45625, 4.5325, 0.805, -0.321, -0.9075, -0.07575, -0.56, 1.0325, 0.41125
47.9244601727, 1.46375, 1.04625, 0.0505, -3.17625, 4.43625, 0.8225, -0.146, -0.82875, -0.2595, -0.385, 1.11125, 0.2275
47.9746141434, 1.20125, 0.81, -0.1245, -3.43875, 4.2, 0.6475, -0.1635, -0.7675, -0.067, -0.4025, 1.1725, 0.42
48.0247790813, 1.34125, 0.85375, -0.002, -3.29875, 4.24375, 0.77, -0.076, -0.89, -0.30325, -0.315, 1.05, 0.18375
48.0749330521, 1.35875, 0.69625, 0.02425, -3.28125, 4.08625, 0.79625, -0.13725, -1.0475, -0.277, -0.37625, 0.8925, 0.21
48.1251652241, 1.00875, 0.95875, -0.02825, -3.63125, 4.34875, 0.74375, -0.216, -0.65375, -0.12825, -0.455, 1.28625, 0.35875
48.1753220558, 1.07, 0.81, 0.0155, -3.57, 4.2, 0.7875, -0.31225, -0.8375, 0.09925, -0.55125, 1.1025, 0.58625
48.225508213, 1.18375, 0.9325, -0.15075, -3.45625, 4.3225, 0.62125, -0.1985, -0.8025, -0.2945, -0.4375, 1.1375, 0.1925
48.2757320404, 1.30625, 1.02875, 0.12925, -3.33375, 4.41875, 0.90125, -0.24225, -0.61875, 0.25675, -0.48125, 1.32125, 0.74375
48.3258650303, 1.23625, 0.9675, -0.1595, -3.40375, 4.3575, 0.6125, -0.03225, -0.68, -0.2945, -0.27125, 1.26, 0.1925
48.3760511875, 1.035, 0.6, -0.1245, -3.605, 3.99, 0.6475, -0.1635, -0.89, -0.312, -0.4025, 1.05, 0.175
48.4262881279, 1.30625, 0.81875, -0.13325, -3.33375, 4.20875, 0.63875, -0.11975, -0.7675, -0.0845, -0.35875, 1.1725, 0.4025
48.4773042202, 1.13125, 0.88875, -0.18575, -3.50875, 4.27875, 0.58625, -0.146, -0.67125, -0.18075, -0.385, 1.26875, 0.30625
48.5276842117, 1.2625, 0.915, -0.15075, -3.3775, 4.305, 0.62125, -0.39975, -0.75875, -0.207, -0.63875, 1.18125, 0.28
48.5781540871, 1.14, 0.81, 0.1205, -3.5, 4.2, 0.8925, -0.1285, -0.91625, -0.26825, -0.3675, 1.02375, 0.21875
48.6286451817, 1.1575, 0.76625, 0.033, -3.24625, 4.33125, 0.7875, -0.11975, -0.9425, -0.16325, -0.35875, 0.9975, 0.32375
48.6793642044, 1.105, 0.80125, -0.107, -3.535, 4.19125, 0.665, 0.029, -0.89, -0.21575, -0.21, 1.05, 0.27125
48.7295670509, 1.28875, 0.83625, -0.32575, -3.35125, 4.22625, 0.44625, 0.02025, -0.8375, -0.25075, -0.21875, 1.1025, 0.23625
48.779818058, 1.27125, 0.88875, -0.06325, -3.36875, 4.27875, 0.70875, -0.111, -0.88125, -0.32075, -0.35, 1.05875, 0.16625
48.8300280571, 0.99125, 0.9325, -0.072, -3.64875, 4.3225, 0.7, -0.18975, -0.58375, -0.207, -0.42875, 1.35625, 0.28
48.8802371025, 1.30625, 1.1075, -0.0545, -3.33375, 4.4975, 0.7175, 0.0465, -0.63625, -0.33825, -0.1925, 1.30375, 0.14875
48.9304420948, 1.18375, 0.81875, 0.14675, -3.45625, 4.20875, 0.91875, -0.111, -1.1, -0.4695, -0.35, 0.84, 0.0175
48.9806690216, 1.06125, 0.83625, -0.072, -3.57875, 4.22625, 0.7, -0.11975, -0.79375, -0.00575, -0.35875, 1.14625, 0.48125
49.0309090614, 0.965, 0.775, 0.103, -3.675, 4.165, 0.875, -0.076, -0.88125, -0.02325, -0.315, 1.05875, 0.46375
49.0810852051, 1.09625, 0.69625, 0.0505, -3.54375, 4.08625, 0.8225, -0.17225, -0.86375, -0.2245, -0.41125, 1.07625, 0.2625
49.1312901974, 1.11375, 0.74875, -0.23825, -3.52625, 4.13875, 0.53375, -0.04975, -0.9075, -0.18075, -0.28875, 1.0325, 0.30625
49.181456089, 1.30625, 0.7925, -0.072, -3.33375, 4.1825, 0.7, -0.0935, -0.77625, -0.172, -0.3325, 1.16375, 0.315
49.2316200733, 1.21875, 0.81, -0.11575, -3.42125, 4.2, 0.65625, 0.19525, -0.81125, -0.207, -0.04375, 1.12875, 0.28
49.2818181515, 1.0525, 1.06375, -0.08075, -3.5875, 4.45375, 0.69125, 0.0815, -0.74125, -0.1895, -0.1575, 1.19875, 0.2975
49.332034111, 1.27125, 1.11625, 0.05925, -3.36875, 4.50625, 0.83125, 0.00275, -0.9425, -0.25075, -0.23625, 0.9975, 0.23625
49.3822100163, 1.4025, 0.76625, -0.1945, -3.2375, 4.15625, 0.5775, -0.29475, -0.56625, -0.0145, -0.53375, 1.37375, 0.4725
49.4324321747, 1.28, 1.01125, 0.00675, -3.36, 4.40125, 0.77875, -0.216, -0.89, -0.11075, -0.455, 1.05, 0.37625
49.4827702045, 1.21875, 1.04625, -0.13325, -3.42125, 4.43625, 0.63875, -0.24225, -0.72375, 0.1255, -0.48125, 1.21625, 0.6125
49.5330011845, 1.30625, 0.73125, -0.1245, -3.33375, 4.12125, 0.6475, -0.03225, -0.9775, -0.557, -0.27125, 0.9625, -0.07
49.583242178, 1.37625, 1.265, -0.037, -3.26375, 4.655, 0.735, 0.2215, -1.07375, -0.37325, -0.0175, 0.86625, 0.11375
49.6334681511, 1.1575, 0.8975, -0.002, -3.4825, 4.2875, 0.77, -0.111, -0.89875, -0.277, -0.35, 1.04125, 0.21
49.6836910248, 1.175, 0.7575, -0.06325, -3.465, 4.1475, 0.70875, -0.111, -0.72375, -0.42575, -0.35, 1.21625, 0.06125
49.7338891029, 1.14, 1.0025, -0.0545, -3.5, 4.3925, 0.7175, -0.17225, -0.96, -0.16325, -0.41125, 0.98, 0.32375
49.7840402126, 1.2975, 0.8275, -0.23825, -3.45625, 4.36625, 0.69125, 0.00275, -0.74125, -0.16325, -0.42875, 0.9275, 0.42875
49.8343141079, 1.34125, 0.64375, 0.0855, -3.29875, 4.03375, 0.8575, -0.15475, -0.67125, -0.16325, -0.39375, 1.26875, 0.32375
49.8844721317, 1.14, 0.94125, -0.142, -3.5, 4.33125, 0.63, -0.1985, -0.88125, -0.0845, -0.4375, 1.05875, 0.4025
49.9346041679, 1.16625, 0.88, -0.072, -3.47375, 4.27, 0.7, -0.08475, -1.00375, -0.4695, -0.32375, 0.93625, 0.0175
49.984757185, 0.83375, 0.8975, -0.36075, -3.80625, 4.2875, 0.41125, -0.146, -0.82, -0.4345, -0.385, 1.12, 0.0525
50.034894228, 1.14, 0.8625, -0.142, -3.5, 4.2525, 0.63, -0.34725, -0.785, -0.0845, -0.58625, 1.155, 0.4025
50.0850381851, 0.965, 1.16875, 0.07675, -3.675, 4.55875, 0.84875, -0.216, -0.72375, -0.26825, -0.455, 1.21625, 0.21875
50.1351780891, 1.1225, 1.09875, -0.0895, -3.5175, 4.48875, 0.6825, -0.15475, -0.68875, -0.07575, -0.39375, 1.25125, 0.41125
50.1853551865, 1.18375, 0.8625, -0.11575, -3.45625, 4.2525, 0.65625, -0.22475, -0.6975, -0.207, -0.46375, 1.2425, 0.28
50.2355091572, 1.30625, 0.83625, -0.20325, -3.33375, 4.22625, 0.56875, -0.0935, -0.8725, -0.0845, -0.3325, 1.0675, 0.4025
50.2856600285, 1.42875, 0.9675, -0.1245, -3.21125, 4.3575, 0.6475, -0.0235, -0.88125, -0.2945, -0.2625, 1.05875, 0.1925
50.3358402252, 1.18375, 1.01125, -0.06325, -3.45625, 4.40125, 0.70875, -0.22475, -0.89, -0.242, -0.46375, 1.05, 0.245
50.3860340118, 1.35875, 0.88, -0.0895, -3.28125, 4.27, 0.6825, -0.01475, -0.68875, -0.102, -0.25375, 1.25125, 0.385
50.43623209, 1.175, 0.95, -0.1245, -3.465, 4.34, 0.6475, -0.1635, -0.75875, -0.1545, -0.4025, 1.18125, 0.3325
50.4864752293, 1.49, 1.01125, 0.068, -3.15, 4.40125, 0.84, -0.0235, -0.6625, -0.21575, -0.2625, 1.2775, 0.27125
50.5367310047, 1.25375, 1.02, 0.0155, -3.38625, 4.41, 0.7875, -0.0935, -0.88125, -0.2595, -0.3325, 1.05875, 0.2275
50.5869622231, 1.25375, 0.88875, -0.072, -3.38625, 4.27875, 0.7, -0.0235, -0.96, -0.032, -0.2625, 0.98, 0.455
50.6372551918, 1.21, 0.985, 0.0505, -3.43, 4.375, 0.8225, -0.18975, -0.98625, -0.12825, -0.42875, 0.95375, 0.35875
50.6874921322, 1.315, 0.7225, -0.02825, -3.325, 4.1125, 0.74375, 0.0115, -0.6625, -0.207, -0.2275, 1.2775, 0.28
50.7377221584, 1.34125, -1.115, -0.06325, -3.29875, 2.275, 0.70875, 0.0115, -0.98625, -0.1195, -0.2275, 0.95375, 0.3675
50.7879390717, 1.23625, 1.1075, 0.04175, -3.2375, 4.19125, 0.67375, 0.03775, -1.09125, -0.37325, -0.32375, 0.98, 0.2625
50.8381171227, 1.3675, 1.195, 0.00675, -3.2725, 4.585, 0.77875, -0.0585, -0.95125, -0.032, -0.2975, 0.98875, 0.455
50.8884022236, 1.1575, 0.985, 0.103, -3.4825, 4.375, 0.875, -0.04975, -0.93375, -0.11075, -0.28875, 1.00625, 0.37625
50.9386920929, 1.5075, 0.88, -0.01075, -3.1325, 4.27, 0.76125, -0.04975, -0.925, -0.25075, -0.28875, 1.015, 0.23625
50.9889981747, 1.3675, 0.7925, -0.1245, -3.2725, 4.1825, 0.6475, -0.076, -0.81125, 0.038, -0.315, 1.12875, 0.525
51.0399320126, 1.5775, 1.09875, -0.142, -3.0625, 4.48875, 0.63, 0.029, -0.9075, -0.0495, -0.21, 1.0325, 0.4375
51.0902321339, 1.07875, 0.80125, -0.04575, -3.56125, 4.19125, 0.72625, -0.2685, -0.84625, -0.2945, -0.5075, 1.09375, 0.1925
51.1405460835, 1.39375, 0.6, -0.0895, -3.24625, 3.99, 0.6825, -0.17225, -0.77625, -0.2595, -0.41125, 1.16375, 0.2275
51.1908512115, 1.06125, 1.02, -0.107, -3.45625, 4.2, 0.8575, -0.0935, -0.77625, -0.25075, -0.41125, 0.945, 0.16625
51.2410480976, 1.0875, 0.90625, -0.06325, -3.5525, 4.29625, 0.70875, -0.251, -0.79375, -0.2245, -0.49, 1.14625, 0.2625
51.2912390232, 1.16625, 0.92375, -0.09825, -3.47375, 4.31375, 0.67375, -0.36475, -0.8025, -0.04075, -0.60375, 1.1375, 0.44625
51.341476202, 1.25375, 0.81875, -0.15075, -3.5875, 4.47125, 0.805, -0.03225, -0.8375, -0.2595, -0.35, 1.23375, 0.315
51.3929262161, 1.0525, 1.195, 0.11175, -3.5875, 4.585, 0.88375, -0.1635, -0.82875, -0.16325, -0.4025, 1.11125, 0.32375
51.4430611134, 1.1225, 1.02875, 0.09425, -3.5175, 4.41875, 0.86625, 0.00275, -1.10875, -0.11075, -0.23625, 0.83125, 0.37625
51.4932570457, 1.28875, 0.8625, -0.002, -3.35125, 4.2525, 0.77, -0.10225, -0.6625, -0.37325, -0.34125, 1.2775, 0.11375
