TIME, IMU1_gyr_x, IMU1_gyr_y, IMU1_gyr_z, IMU1_gyr_raw_x, IMU1_gyr_raw_y, IMU1_gyr_raw_z,IMU2_gyr_x, IMU2_gyr_y,IMU2_gyr_z, IMU2_gyr_raw_x, IMU2_gyr_raw_y, IMU2_gyr_raw_z3.09944152832e-06, 0.0, 0.0, 0.0, 0.0, 0.0, 0.0, 0.0, 0.0, 0.0, 0.0, 0.0, 0.0
0.050243139267, 0.0, 0.0, 0.0, 0.0, 0.0, 0.0, 0.0, 0.0, 0.0, 0.0, 0.0, 0.0
0.10177898407, 0.199479081016, 0.349588551114, 0.0214831729945, -4.27875, 3.605, 0.79625, -0.0962339222776, -0.250505969516, -0.0690692426895, -0.245, 1.785, 0.3675
0.151935100555, 0.209832750061, 0.350075053762, -0.018550766887, -4.375, 3.5525, 0.56875, -0.0788592793404, -0.244276351777, -0.113107227921, -0.315, 1.6625, 0.1575
0.202183961868, 0.205527027549, 0.342785793547, 0.000781378821551, -4.515, 3.71, 0.735, -0.0819035162657, -0.20893884494, -0.0661968546157, -0.35875, 1.96875, 0.6125
0.252445936203, 0.185939392315, 0.370831492773, -0.00622208315454, -4.55, 3.955, 0.7525, -0.0666943481752, -0.239290464401, -0.0372119522387, -0.245, 1.58375, 0.81375
0.302665948868, 0.224899816998, 0.332608658232, -0.00756289861966, -4.24375, 3.5175, 0.72625, -0.0386611798197, -0.258115248548, -0.041425763182, -0.23625, 1.46125, 0.2625
0.352874994278, 0.208694466591, 0.347286711851, -0.00941535309373, -4.43625, 3.77125, 0.79625, -0.0857925000886, -0.250243516192, -0.0114313813597, -0.23625, 1.79375, 0.49
0.403084993362, 0.210030017939, 0.341227236599, 0.00205606399408, -4.445, 3.54375, 0.91, -0.0877819250718, -0.261634748115, -0.0430769189014, -0.30625, 1.5925, 0.51625
0.453289031982, 0.220805633077, 0.369057155481, -0.0132006293483, -4.29625, 3.73625, 0.83125, -0.0497290233773, -0.232859231376, -0.0267663238791, -0.11375, 1.855, 0.35
0.503483057022, 0.223165062793, 0.368661295939, -0.0175475097721, -4.4275, 3.73625, 0.7525, -0.0765080089356, -0.243528477415, -0.0274982223421, -0.3675, 1.5225, 0.4025
0.553674936295, 0.253673580776, 0.36873908474, -0.0365566346239, -4.34, 3.745, 0.5425, -0.0624053385141, -0.259498510035, -0.0293482040874, -0.28875, 1.67125, 0.53375
0.603985071182, 0.212083040386, 0.371482042775, -0.0384617866408, -4.7775, 3.75375, 0.6825, -0.0899258241964, -0.241656293129, -0.0779770453108, -0.23625, 1.75, 0.4375
0.654210090637, 0.190812262712, 0.367037954648, -0.0310090471791, -4.43625, 3.6925, 0.74375, -0.0665606758392, -0.253032437691, -0.0696472660315, -0.3325, 1.575, 0.5775
0.704380989075, 0.214320889517, 0.335416918938, -0.0504038453935, -4.3575, 3.6575, 0.76125, -0.0547599826868, -0.255314397077, -0.069271106937, -0.28875, 1.91625, 0.55125
0.754577159882, 0.228237420509, 0.32942520434, -0.0466321147688, -4.41875, 3.64, 0.77875, -0.0538955859763, -0.244742161632, -0.079952096619, -0.14, 1.645, 0.41125
0.804734945297, 0.238147579551, 0.298144723964, -0.0433130616664, -4.4275, 3.57, 0.65625, -0.0813583821767, -0.21885578583, -0.0705620784352, -0.60375, 1.77625, 0.23625
0.854922056198, 0.265912039436, 0.315772226411, -0.0396635799498, -4.235, 3.71875, 0.8225, -0.0603902895631, -0.223260686522, -0.0688352835325, -0.21, 1.70625, 0.44625
0.905122041702, 0.244017376749, 0.342765453053, -0.0386792497834, -4.52375, 3.885, 0.76125, -0.0427280210915, -0.188662040475, -0.0514154216952, -0.23625, 1.9775, 0.25375
0.955283164978, 0.22231616765, 0.353221015276, -0.0172504230921, -4.6725, 3.87625, 0.76125, -0.0917147273757, -0.180843377506, -0.0336063424158, -0.4375, 1.74125, 0.7175
1.00546002388, 0.00951598621693, 0.338775620136, -0.0372588084341, -4.38375, 3.78, 0.56875, -0.0477135362569, -0.214693572202, -0.0450272736211, -0.18375, 1.8025, 0.41125
1.05566310883, 0.0389829488357, 0.35235825231, -0.0421096348317, -4.55, 3.77125, 0.63875, -0.0332254643681, -0.244564293484, -0.0461395916331, -0.21875, 1.5225, 0.56875
1.10583305359, 0.0957710697012, 0.390839165934, -0.0330774237923, -4.34875, 3.78875, 0.8225, 0.00832138647566, -0.258433619949, 0.00580848769946, -0.09625, 1.60125, 0.455
1.15617108345, 0.141675859812, 0.390095501966, -0.0241741919446, -4.33125, 3.6575, 0.8575, 0.0289752907408, -0.245785608943, 0.0564711375329, -0.04375, 1.68, 0.72625
1.20655703545, 0.154957446448, 0.361377356592, -0.0203110954751, -4.445, 3.5875, 0.81375, 0.0219799855, -0.244198843244, 0.0404491214017, -0.20125, 1.715, 0.2975
1.25683307648, 0.211781478461, 0.313886592956, -0.00517253860135, -4.22625, 3.57875, 0.63, 0.0139249094295, -0.245103456725, 0.0170966595018, -0.245, 1.75, 0.4375
1.3070909977, 0.184792997553, 0.299910640294, -0.00386975626709, -4.62, 3.6925, 0.76125, 0.0243141766379, -0.240758799947, 0.0199307941965, -0.245, 1.53125, 0.56875
1.35737299919, 0.173607328018, 0.326477618638, 0.00637299742365, -4.41875, 3.9375, 0.8925, 0.0243294830767, -0.250277127957, -0.0204735567009, -0.21875, 1.645, 0.39375
1.4075961113, 0.214045992125, 0.339640933987, -0.0224085848782, -4.29625, 4.06, 0.63875, 0.0337501931629, -0.230197026281, -0.0449647228349, -0.245, 1.8725, 0.5075
1.45779895782, 0.205614753621, 0.35988415653, -0.0157309537513, -4.375, 3.82375, 0.81375, 0.046147656462, -0.226672091287, -0.0406639254963, -0.14, 1.7325, 0.4025
1.50800299644, 0.238597950433, 0.335506166789, -0.0197720725386, -4.2525, 3.68375, 0.5775, 0.0304646017342, -0.232391893943, -0.052317779652, -0.35, 1.6625, 0.46375
1.55819511414, 0.236250405866, 0.317881495589, -0.0415295908806, -4.27, 3.675, 0.5775, 0.0106776946642, -0.244432440684, -0.0579941613663, -0.2275, 1.68875, 0.455
1.60835313797, 0.208725328751, 0.352846511427, -0.0348064686133, -4.52375, 3.9375, 0.77, 0.042333932678, -0.262877776954, -0.0484177707067, 0.00875, 1.54875, 0.44625
1.65854907036, 0.22568201466, 0.354436356831, -0.0110321656191, -4.3225, 3.64875, 0.69125, 0.0115866869223, -0.2785128994, -0.0403723048452, -0.41125, 1.72375, 0.58625
1.70974612236, 0.199902431874, 0.406955949033, 0.00275894584854, -4.3925, 4.025, 0.79625, 0.022245216407, -0.258107948514, -0.0547940669246, -0.34125, 1.79375, 0.42875
1.75996208191, 0.188820969818, 0.422721818716, -0.00540775386269, -4.43625, 3.94625, 0.83125, 0.0467161252897, -0.225129938296, -0.0768006942089, -0.09625, 1.70625, 0.105
1.81021809578, 0.173266736998, 0.374776705844, 0.0123594974341, -4.50625, 3.7625, 0.91875, 0.0463775553362, -0.262334725018, -0.0573972060783, -0.23625, 1.645, 0.39375
1.86039113998, 0.161121056968, 0.357194131734, -0.00725630707838, -4.57625, 3.70125, 0.65625, 0.0173508198223, -0.265741127264, -0.0556342369234, -0.42, 1.4525, 0.5425
1.91057896614, 0.173770556144, 0.337352246704, -0.0100201087335, -4.45375, 3.6925, 0.70875, 0.0221016640561, -0.288625313084, -0.053593731908, -0.11375, 1.56625, 0.44625
1.9607591629, 0.162662485429, 0.337024787848, -0.0146979092667, -4.5325, 3.675, 0.69125, -0.0165938869031, -0.255029103238, -0.0692843305609, -0.21875, 1.84625, 0.3325
2.0110270977, 0.172919113198, 0.359340078157, -0.030222806506, -4.34875, 3.745, 0.70875, -0.0362810483915, -0.218348573623, -0.0786503077543, -0.13125, 1.89875, 0.385
2.06118702888, 0.201171783521, 0.366021416976, -0.0415006759429, -4.4625, 3.80625, 0.58625, -0.00586738427742, -0.246138610171, -0.0435205743529, -0.245, 1.5575, 0.5775
2.11137294769, 0.184249144652, 0.383264847751, -0.0280455475137, -4.445, 3.78875, 0.81375, -0.0367800812647, -0.233809774239, -0.0400191652259, -0.34125, 1.8375, 0.42875
2.16157412529, 0.190277626451, 0.33025382401, -0.0234109541375, -4.55875, 3.5175, 0.7875, -0.023914929242, -0.25139857542, -0.0234434714497, -0.21, 1.74125, 0.60375
2.21171402931, 0.142787377426, 0.355168097448, -0.0142678728514, -4.71625, 3.7975, 0.88375, -0.046586092686, -0.24008284609, -0.0101067118742, -0.3325, 1.79375, 0.455
2.26187705994, 0.178908248143, 0.34925129304, -0.0374470293087, -4.2875, 3.78, 0.72625, -0.0430160115681, -0.2206041448, -0.00306354295631, -0.35, 1.75, 0.35875
2.31208300591, 0.211190680996, 0.359968547362, -0.02843709374, -4.2, 3.84125, 0.76125, -0.0350204693702, -0.219514357288, 0.0456885302054, -0.30625, 1.67125, 0.84
2.36233711243, 0.00423945160677, 0.381337023363, -0.0200015459294, -6.64125, 3.92875, 0.79625, -0.0339690801898, -0.228869129403, 0.0185902094664, -0.2975, 1.67125, 0.32375
2.41254711151, 0.0667505602213, 0.365983440032, -0.0166543769825, -4.41875, 3.4825, 0.735, -0.0252694594584, -0.218545595335, 0.011460262701, -0.07, 1.855, 0.65625
2.46276402473, 0.0706429537793, 0.354534086426, -0.0134325453559, -4.52375, 3.59625, 0.65625, -0.0196832621613, -0.228434432221, 0.0104653127878, -0.28875, 1.715, 0.55125
2.51302599907, 0.0535832925612, 0.351122610005, -0.0382978617382, -4.8125, 3.78875, 0.58625, -0.0190959423506, -0.231194390099, 0.0142094033581, -0.3675, 1.61, 0.2975
2.56330609322, 0.114263470277, 0.317899632694, -0.00800364120718, -4.45375, 3.57, 0.83125, -0.0137531919736, -0.254496960382, -0.0130833449519, -0.18375, 1.6975, 0.41125
2.61351299286, 0.126334319832, 0.342776332234, -0.01277290444, -4.41, 3.7625, 0.67375, 0.00380917305123, -0.279368284119, -0.02066850847, -0.14, 1.68875, 0.4375
2.6636941433, 0.161518299064, 0.342386329109, -0.0112510525964, -4.3575, 3.71, 0.79625, -0.0246545698285, -0.222925810136, -0.0122339918607, -0.30625, 1.91625, 0.56875
2.71392202377, 0.156259340018, 0.337325883921, -0.0096190173428, -4.52375, 3.61375, 0.6825, 0.00571456859502, -0.238826665589, -0.0284843300664, -0.21, 1.575, 0.1925
2.76408100128, 0.156882565414, 0.345233965976, -0.0338089040477, -4.41, 3.885, 0.6475, -0.022848699438, -0.247137099127, 0.00943519264619, -0.4375, 1.72375, 0.6125
2.81426095963, 0.174746140187, 0.377088061196, -0.0419274410507, -4.31375, 3.89375, 0.56875, 0.00592854810967, -0.245154195264, -0.00363999456092, -0.21, 1.715, 0.42
2.86447310448, 0.162669373551, 0.381991329569, -0.0379287272511, -4.38375, 3.78875, 0.805, -0.00920037603116, -0.225137398164, 0.0308716044057, -0.1925, 1.68, 0.665
2.91462302208, 0.192658473319, 0.349922929256, -0.0406870421661, -4.40125, 3.64, 0.63875, -0.00757182412672, -0.265017663261, 0.00470714961172, -0.27125, 1.56625, 0.385
2.96481609344, 0.207978363388, 0.330850072697, -0.00874900415451, -4.2175, 3.5525, 0.7875, -0.0118231775426, -0.273164307242, 0.0170702911855, -0.07, 1.47875, 0.735
3.01500701904, 0.21190747691, 0.330272202996, 0.0271349759714, -4.40125, 3.71, 0.88375, -0.0127650964286, -0.294910529979, -0.0237727577258, -0.4025, 1.40875, 0.23625
3.06522893906, 0.209832556297, 0.329807984427, 0.0279868305368, -4.33125, 3.70125, 0.77875, -0.00264222810715, -0.263690029283, -0.0290109337579, -0.14875, 1.6975, 0.16625
3.11543297768, 0.233366683541, 0.341998770647, -0.000807100538668, -4.29625, 3.75375, 0.81375, 0.0234940657099, -0.255287531347, -0.0710422207095, -0.0525, 1.68, 0.2625
3.16563916206, 0.226689513668, 0.342106504224, 0.0155037485637, -4.54125, 3.745, 0.84875, 0.036702693225, -0.248482900391, -0.0538241987747, -0.0175, 1.74125, 0.56875
3.21578907967, 0.239110405464, 0.36554189158, -0.00596976729708, -4.4625, 3.92, 0.65625, 0.060025263361, -0.279971534385, -0.0280648409067, 0.0, 1.505, 0.37625
3.26597595215, 0.226879428426, 0.372551432179, -0.0105530115106, -4.59375, 3.78, 0.7875, 0.0348804633224, -0.247389442852, -0.0137625211345, -0.32375, 1.8025, 0.62125
3.31614208221, 0.0286723370249, 0.382779160065, -0.0104154393236, -6.65, 3.84125, 0.77875, 0.0370881752912, -0.23438544871, -0.0233526421189, -0.035, 1.72375, 0.4725
3.36637210846, 0.0920783836911, 0.358626007688, -0.0216186052669, -4.4625, 3.89375, 0.7525, 0.000605029787264, -0.24049574211, -0.0114335761047, -0.56, 1.8025, 0.62125
3.41653013229, 0.11968349079, 0.391099566227, -0.0157910702662, -4.27, 3.91125, 0.8225, 0.0162375741277, -0.229064051109, -0.0236536966448, -0.13125, 1.77625, 0.3325
3.46671414375, 0.15735612754, 0.389840648644, -0.0120332669156, -4.3925, 3.8325, 0.805, 0.0179624350434, -0.215429381398, -0.0437894942823, -0.1225, 1.74125, 0.49
3.51691508293, 0.163095116976, 0.388641332861, 3.94984185115e-05, -4.34, 3.7975, 0.67375, 0.0600748651467, -0.232469269039, 0.0196142086682, 0.0875, 1.75875, 0.5775
3.5671710968, 0.153932044751, 0.416374479618, -0.010235506281, -4.55, 3.85, 0.72625, 0.0538206407688, -0.223087607922, -0.00874249097875, -0.16625, 1.8025, 0.25375
3.61744713783, 0.137409956248, 0.42842582849, 0.00909173991239, -4.515, 3.91125, 0.81375, 0.0420172190227, -0.204988462417, -0.00196141769279, -0.28875, 1.75, 0.55125
3.66765904427, 0.136155608105, 0.400774928969, 0.00517587839613, -4.45375, 3.78875, 0.88375, 0.0456908026676, -0.201617839102, -0.015133123498, -0.25375, 1.7675, 0.30625
3.7178800106, 0.132198542565, 0.382627692465, 4.99615008645e-05, -4.305, 3.5875, 0.70875, 0.0177570501607, -0.202385449672, -0.0379378300334, -0.32375, 1.68875, 0.14875
3.76807308197, 0.16144148753, 0.399106837807, -0.00118807806587, -4.4275, 3.77125, 0.63875, 0.0312601395672, -0.212145242811, -0.00398867809436, -0.2275, 1.785, 0.42875
3.8182489872, 0.179630104899, 0.407701538624, -0.000379843233355, -4.445, 3.8675, 0.7875, -0.00303178695059, -0.242412646677, -0.0450983292564, -0.44625, 1.68875, 0.2625
3.86845898628, 0.192262884968, 0.412125746285, 0.00447482698098, -4.26125, 3.85, 0.81375, -0.00954574742998, -0.236741743808, -0.0761221466977, -0.3675, 1.8725, 0.3325
3.91862416267, 0.182557143142, 0.394667169042, 0.0166238988691, -4.41875, 3.89375, 0.8925, -0.0271960998765, -0.210398481236, -0.00780629494263, -0.27125, 1.8025, 0.74375
3.96888494492, 0.19320040735, 0.395353616232, -0.0021956777244, -4.41875, 3.84125, 0.77875, 0.00130679319006, -0.201632992821, -0.0214765390132, -0.245, 1.91625, 0.35
4.01984405518, 0.214454829954, 0.379548929148, -0.00767099895676, -4.24375, 3.71875, 0.69125, -0.00918149751605, -0.189360224185, -0.0282884966007, -0.21, 1.89, 0.44625
4.07001614571, 0.243062571036, 0.338797419349, -0.0144816582395, -4.1125, 3.5875, 0.6125, -0.0297130616892, -0.190828603431, -0.0400568140219, -0.14, 1.715, 0.4025
4.12019705772, 0.220718182539, 0.353075909672, -0.012460143174, -4.4275, 3.84125, 0.735, -0.0446325799683, -0.195308668779, -0.0680135193577, -0.21875, 1.5225, 0.34125
4.17039513588, 0.221273555071, 0.330208588151, -0.0179029443738, -4.48, 3.66625, 0.76125, -0.0325269007969, -0.25673876954, -0.0555763556118, -0.02625, 1.1725, 0.69125
4.2205491066, 0.218381579608, 0.324506456402, -0.0200438849428, -4.55, 3.7275, 0.72625, -0.0370242896455, -0.265670903327, -0.0270343480455, -0.41125, 1.5575, 0.34125
4.27073597908, 0.395326579482, 0.319450229686, -0.00217804680367, -4.4975, 3.605, 0.79625, -0.0450421746128, -0.242105931695, -0.0144153219169, -0.2975, 1.72375, 0.4725
4.32095909119, 0.563734326443, 0.320999217441, 0.00828270388012, -2.24875, 3.77125, 0.7875, -0.0195429952927, -0.242711474206, -0.0263382696774, -0.13125, 1.75, 0.385
4.37117505074, 0.511699804418, 0.345746866127, 0.0162164901429, -4.375, 3.92, 0.81375, -0.00664482618712, -0.230683794107, -0.0238264984387, -0.315, 1.63625, 0.42
4.42148995399, 0.443899157421, 0.351553215407, 0.0149723213142, -4.45375, 3.73625, 0.91875, -0.0207500782904, -0.216359735904, -0.0315715173618, -0.42875, 1.74125, 0.28
4.47197914124, 0.425658317511, 0.331908104479, 0.00991008026448, -4.375, 3.52625, 0.74375, 0.00646493658477, -0.239788886082, -0.0239529290631, -0.16625, 1.58375, 0.51625
4.52218294144, 0.387345737184, 0.323870564628, -0.00687783498577, -4.36625, 3.605, 0.81375, 0.00540909863366, -0.253866497726, -0.0440318725411, -0.35, 1.5225, 0.41125
4.57232308388, 0.549796292407, 0.324335391614, -0.00703469170463, -2.2575, 3.80625, 0.86625, 0.0468022329039, -0.254198676843, -0.0327562350825, 0.06125, 1.5925, 0.35875
4.62248015404, 0.46672249685, 0.345036667207, 0.00477189971925, -4.6725, 3.89375, 0.83125, 0.0542698086522, -0.271750928243, -0.0434625504168, -0.07, 1.53125, 0.23625
4.67272114754, 0.430232722448, 0.340542200438, 0.0125852387726, -4.34875, 3.6575, 0.81375, 0.0590060450083, -0.271705751876, -0.0166096658376, -0.20125, 1.77625, 0.63875
4.72292709351, 0.606497154665, 0.338204014119, -3.86109347785e-05, -2.2575, 3.78875, 0.6825, 0.00953940681103, -0.280617243118, -0.0644866963956, -0.4375, 1.56625, 0.14
4.77312111855, 0.541437695278, 0.341307751437, -0.00146127485717, -4.31375, 3.815, 0.8225, -0.00233808048306, -0.287549966926, -0.0707392240804, -0.35, 1.6975, 0.39375
4.82327198982, 0.464484329858, 0.378705850797, 0.000658980629123, -4.445, 4.0425, 0.83125, 0.0217382893278, -0.285876425889, -0.102232144355, -0.21875, 1.715, 0.20125
4.87346315384, 0.412757307185, 0.399576739146, -0.0169087256904, -4.57625, 3.99875, 0.56, 0.0422805143556, -0.28402240497, -0.0476755369273, -0.2625, 1.53125, 0.7175
4.92371511459, 0.36648341882, 0.372119658708, -0.0311385678092, -4.38375, 3.6575, 0.7175, 0.009482216628, -0.248220648026, -0.0482846849111, -0.4025, 1.65375, 0.49
4.97397112846, 0.33305766232, 0.399697731198, -0.0405582659329, -4.31375, 3.91125, 0.5425, 0.00496278592181, -0.228820352411, -0.0680127853002, -0.41125, 1.82875, 0.41125
5.02415299416, 0.296501706479, 0.403630162271, -0.0458321954057, -4.375, 3.80625, 0.69125, 0.00672985659667, -0.232906985453, -0.0262578560931, -0.175, 1.70625, 0.63875
5.07441401482, 0.310942244023, 0.368821388295, -0.0297449204507, -4.235, 3.61375, 0.805, 0.026065065459, -0.242935442395, -0.000706477091902, -0.06125, 1.82875, 0.55125
5.12481212616, 0.337650717659, 0.370220324519, -0.0535233855651, -4.13875, 3.8325, 0.62125, 0.0440352030218, -0.24854020834, -0.0114647464444, -0.1225, 1.60125, 0.525
5.17526316643, 0.320552373173, 0.384750616574, -0.026409298077, -4.22625, 3.89375, 0.77, 0.0351394130029, -0.25910081188, -0.001813550158, -0.2275, 1.54875, 0.39375
5.22572493553, 0.28689742227, 0.392747999425, -0.0208965314423, -4.55875, 4.0075, 0.8575, 0.0589979245323, -0.248946657623, 0.000938524372022, -0.07, 1.84625, 0.51625
5.27589297295, 0.273088220835, 0.359672041581, -0.0158455714215, -4.375, 3.57875, 0.7, 0.0438247369841, -0.246132113407, -0.0419990657328, -0.245, 1.505, 0.14875
5.32607007027, 0.288667562989, 0.330668418313, -0.0177021715662, -4.40125, 3.80625, 0.67375, 0.0600722332614, -0.213464060674, -0.0445830689192, -0.18375, 1.96, 0.51625
5.37623500824, 0.285220726021, 0.361103918833, -0.0323937589687, -4.34875, 3.885, 0.65625, 0.0513685089417, -0.237880889146, -0.0366797858246, -0.41125, 1.61875, 0.2975
5.426445961, 0.280003409269, 0.363816006829, -0.00996455028815, -4.50625, 3.85875, 0.945, 0.0820653930185, -0.231642668187, -0.0447303138661, -0.07, 1.785, 0.35
5.47660303116, 0.292781235357, 0.353595618979, -0.0328749071601, -4.305, 3.71, 0.74375, 0.0475859215105, -0.255567505108, -0.0185653988084, -0.14875, 1.6625, 0.56875
5.52683711052, 0.276546270575, 0.365587456235, -0.0358828073197, -4.41875, 3.85875, 0.65625, 0.0184253867812, -0.219756211224, -0.0295211757313, -0.315, 1.8375, 0.385
5.57700610161, 0.293777479166, 0.359900839551, -0.0189450739289, -4.165, 3.77125, 0.79625, 0.0380220632927, -0.211565031091, -0.0355921523424, -0.02625, 1.7675, 0.3675
5.62718009949, 0.273142532312, 0.391105212032, -0.0384329588942, -4.45375, 3.91125, 0.63, 0.0243245841404, -0.187625907666, -0.0579549290576, -0.1225, 1.7325, 0.1925
5.67779016495, 0.270017156056, 0.365544449572, -0.0222596270339, -4.29625, 3.71875, 0.67375, 0.00940412183835, -0.216829286688, -0.087364893283, -0.27125, 1.60125, 0.1575
5.72800111771, 0.270376396405, 0.362228504153, -0.0188477978974, -4.40125, 3.85, 0.72625, -0.00909766131093, -0.177519222218, -0.0986330635592, -0.385, 2.1, 0.4025
5.7781920433, 0.249065642979, 0.357259579528, -0.0370757946672, -4.4625, 3.885, 0.65625, -0.00927319509567, -0.217625262997, -0.0524792533347, -0.1575, 1.4875, 0.595
5.82837796211, 0.238355670813, 0.358580259417, -0.0342613936805, -4.48875, 3.84125, 0.62125, 0.00464871197251, -0.216576463027, -0.0434256952011, -0.25375, 1.72375, 0.5775
5.8785469532, 0.216745034023, 0.356183759115, -0.0157273059931, -4.4625, 3.815, 0.79625, -0.040280838972, -0.211859241547, -0.0189355818016, -0.4725, 1.86375, 0.5075
5.9288611412, 0.00235097755847, 0.359721344883, 0.0227558821456, -4.52375, 3.64875, 0.8925, -0.0615924795674, -0.201668485653, 0.00474467874071, -0.42875, 1.56625, 0.55125
5.97917795181, 0.0233792918224, 0.379124289356, 0.00387726453796, -4.7425, 3.885, 0.77, -0.0404424084496, -0.204963973379, -0.01352431022, -0.21, 1.67125, 0.27125
6.02935600281, 0.0515047537385, 0.40641410694, 0.0218407758482, -4.40125, 3.94625, 0.875, -0.0538672657597, -0.190592486593, -0.0074449721504, -0.32375, 1.82875, 0.595
6.07953214645, 0.0775438505282, 0.377832926622, 0.032536028437, -4.48875, 3.675, 0.875, -0.0360224852654, -0.23247991414, -0.00764792744182, -0.1575, 1.40875, 0.58625
6.129956007, -0.085129282965, 0.369107703507, 0.0337030147306, -4.43625, 3.7275, 0.8225, -0.0113401417585, -0.232719107408, -0.0620835891051, -0.07875, 1.7325, 0.34125
6.18052697182, -0.0286672192016, 0.363539739841, 0.0279694419318, -4.43625, 3.77125, 0.7175, -0.00665051482435, -0.264589977001, -0.0435927071751, -0.1925, 1.53125, 0.63
6.23073506355, -0.00673294755331, 0.373379689271, 0.0176377479647, -4.5325, 3.78875, 0.77875, -0.00495191700773, -0.235717881371, -0.0511900928118, -0.32375, 1.8025, 0.42
6.28096795082, 0.0409104312336, 0.356288793479, 0.0166646682663, -4.62, 3.7625, 0.70875, -0.0329559474986, -0.250260835519, -0.0656070776598, -0.32375, 1.67125, 0.28875
6.33122014999, 0.0578499492992, 0.342481422718, 0.0242308812957, -4.41875, 3.80625, 0.8575, -0.0295843174739, -0.267948776771, -0.0592217329045, -0.34125, 1.51375, 0.2975
6.38149499893, 0.0524959589324, 0.335934952401, 0.0215220138495, -4.59375, 3.56125, 0.84, -0.0300032971539, -0.217088509184, -0.0683996036526, -0.34125, 1.96875, 0.35875
6.43168115616, 0.113820804062, 0.366704080301, 0.0213162980963, -4.26125, 3.8325, 0.79625, -0.0538609036252, -0.229295023195, -0.0498028110628, -0.3675, 1.7325, 0.3675
6.48185896873, 0.14280735129, 0.356955305043, 0.002011201458, -4.4275, 3.78, 0.77875, -0.0539548319364, -0.237316468788, 0.00310472303917, -0.2975, 1.77625, 0.6825
6.53204894066, 0.152986454545, 0.405146297085, -6.34268190197e-05, -4.57625, 4.1125, 0.7175, -0.0438809138685, -0.230776339718, 0.0297723256617, -0.14875, 1.82, 0.56
6.58237695694, -0.0664178746368, 0.412171650575, -0.0110094881511, -6.7025, 3.80625, 0.665, -0.00276268621011, -0.215744701655, -0.0042317245926, 0.0525, 1.79375, 0.35875
6.6328561306, 0.0330913693898, 0.420084383269, -0.0483891668621, -4.50625, 3.85875, 0.63875, -0.00521527583019, -0.24769070834, 0.01857980308, -0.27125, 1.61, 0.58625
6.68316698074, 0.0716415092057, 0.400980850448, -0.0334502251583, -4.375, 3.78, 0.67375, 0.0154583139198, -0.23951152638, 0.0150664264453, -0.07, 1.77625, 0.56875
6.73332309723, 0.0793296224566, 0.392419488863, -0.0261621823782, -4.6025, 3.68375, 0.665, 0.052856234275, -0.223104336368, -0.0159261945793, -0.11375, 1.74125, 0.37625
6.78350710869, 0.0848569941899, 0.407972285979, -0.00853386772638, -4.43625, 3.80625, 0.735, 0.0278485497628, -0.223027012458, -0.0237927176092, -0.3675, 1.8375, 0.44625
6.8337020874, 0.131785748764, 0.389749296479, 0.0127405604275, -4.45375, 3.815, 0.90125, -0.00592065722294, -0.198729192082, 0.0278568588629, -0.35, 1.9775, 0.7
6.883893013, 0.160158956499, 0.402396930148, -0.00773514605375, -4.305, 3.78, 0.81375, 0.0159392676494, -0.216583145586, 0.000384055678926, -0.02625, 1.7675, 0.49875
6.93412899971, 0.161966254764, 0.42524151342, 0.00621703169646, -4.375, 3.9375, 1.0325, -0.00555419320397, -0.234107347925, -0.00279391490007, -0.245, 1.6975, 0.4375
6.9843120575, 0.181567149723, 0.444084813283, 0.00841771610672, -4.34875, 3.82375, 0.945, 0.0149574931543, -0.243364256637, -0.00736626396215, -0.245, 1.72375, 0.25375
7.03450894356, 0.163644391276, 0.441333698759, 0.0134383500464, -4.52375, 3.745, 0.6825, 0.018763069455, -0.271462547876, -0.0219341738093, -0.41125, 1.54875, 0.41125
7.08478307724, 0.144314456933, 0.420117795995, 0.0177675635376, -4.5325, 3.6575, 0.70875, -0.0113169137415, -0.25580966378, -0.0740716807856, -0.34125, 1.68875, 0.07875
7.13498497009, 0.170405239104, 0.40317087328, 0.0325705538189, -4.29625, 3.6575, 0.9275, -0.0119672801175, -0.272598994895, -0.0521090052927, -0.21, 1.61875, 0.385
7.18518209457, 0.212265743675, 0.378180907357, 0.0248646485933, -4.19125, 3.73625, 0.81375, -0.0115334968952, -0.280705185865, -0.0669257942871, -0.39375, 1.7325, 0.4025
7.23535895348, 0.231297752376, 0.366951534959, 0.0095228653606, -4.34, 3.61375, 0.77, 0.00841786751489, -0.268283700551, -0.0442773933725, -0.0875, 1.6625, 0.4025
7.28554415703, 0.250161061482, 0.345398918985, -0.00799358115212, -4.33125, 3.6225, 0.70875, -0.0139693745816, -0.298685067702, -0.0291289697686, -0.14, 1.47875, 0.62125
7.33570814133, 0.454230459801, 0.347135624378, -0.0369548007332, -2.3625, 3.89375, 0.7525, 0.0153698065889, -0.278297404838, 0.00348803448746, -0.14, 1.72375, 0.7
7.3859910965, 0.407076672439, 0.359654855746, -0.0326758885939, -4.31375, 3.98125, 0.69125, 0.00142204333698, -0.270183397919, -0.0414921920652, -0.13125, 1.75, 0.175
7.43615698814, 0.364645144208, 0.362750889839, -0.044505222785, -4.445, 3.77125, 0.70875, 0.00462566959266, -0.260869947083, -0.0458498080155, -0.2275, 1.77625, 0.53375
7.48634409904, 0.338975066808, 0.38586572077, -0.0392292304558, -4.34, 3.92, 0.72625, -0.000630707629944, -0.227017157137, -0.0191558444926, -0.3325, 1.9775, 0.5775
7.53660297394, 0.295119073703, 0.385892360441, -0.0294638590023, -4.40125, 3.78875, 0.76125, 0.00864171413777, -0.214430507553, -0.0253491106351, -0.14875, 1.70625, 0.49875
7.58683013916, 0.2462589497, 0.387022811957, -0.0276582257919, -4.75125, 3.815, 0.90125, 0.0241472884516, -0.265088711118, -0.0421002796144, -0.07, 1.33875, 0.4025
7.63700604439, 0.026944024331, 0.407062129917, -0.0317385966023, -4.48875, 3.955, 0.6825, 0.00827737328121, -0.266632170405, -0.0242693538389, -0.30625, 1.67125, 0.5075
7.68719506264, 0.0699871597081, 0.382732825233, -0.00333826324783, -4.3575, 3.64, 0.9975, -0.00651032764222, -0.270447058028, -0.0462131766095, -0.35, 1.56625, 0.21875
7.73740100861, 0.0902593894272, 0.383127229595, -0.0232230939077, -4.4275, 3.6225, 0.6825, 0.0278142211488, -0.224723405302, -0.0144139057483, -0.1575, 1.96875, 0.525
7.78798413277, 0.119872605436, 0.375858055972, -0.0285532060652, -4.34, 3.71, 0.7, 0.0261145191305, -0.237025958295, 0.0273072363438, -0.245, 1.51375, 0.70875
7.83819413185, 0.139921810403, 0.368482525337, -0.0350580969128, -4.41875, 3.71875, 0.79625, 0.0481877604957, -0.237103526219, 0.0630263614385, -0.105, 1.8725, 0.74375
7.88839793205, 0.173870499784, 0.351047510971, -0.0432318526494, -4.48, 3.71, 0.69125, 0.000156627401396, -0.247175970614, 0.0433992174887, -0.2275, 1.8375, 0.455
7.9386651516, 0.184885104825, 0.316710983886, -0.0591978006461, -4.375, 3.54375, 0.595, -0.0459006318049, -0.217937536197, 0.00396086616583, -0.63875, 1.855, 0.46375
7.98886609077, 0.175519434908, 0.327223396948, -0.0394052185233, -4.55, 3.75375, 0.875, -0.0489945117619, -0.18156690432, -0.0145091984057, -0.3675, 1.86375, 0.23625
8.03903412819, 0.196014918048, 0.320908356375, -0.0168171543035, -4.50625, 3.68375, 0.77875, -0.0402829990745, -0.193704773249, -0.0480804556377, -0.1925, 1.82, 0.3675
8.08919811249, 0.191534583619, 0.333773268664, 0.000785605014175, -4.40125, 3.75375, 0.83125, -0.0367442292503, -0.191513366332, -0.0285751690666, -0.14875, 1.74125, 0.3675
8.1394431591, 0.199455512731, 0.357406347618, -0.00910615993852, -4.50625, 3.89375, 0.62125, -0.0318653256928, -0.209775826729, -0.0134758869439, -0.2625, 1.54875, 0.53375
8.1896340847, 0.176635568781, 0.384990477413, -0.0252578905952, -4.40125, 3.71, 0.72625, 0.00420292756998, -0.208074077685, -0.0373784215821, -0.00875, 1.8725, 0.39375
8.23983597755, 0.180877329641, 0.386330558034, -0.00226875224389, -4.3925, 3.7625, 0.84, -0.0128333158015, -0.230467252633, -0.0192608693334, -0.34125, 1.70625, 0.5775
8.29008197784, 0.19082313701, 0.402777752008, -0.0277676893175, -4.34875, 3.9375, 0.65625, -0.0182724857992, -0.206940974632, 0.02355619584, -0.28875, 1.8375, 0.56875
8.34028816223, -0.04116243312, 0.407041231214, -0.0214496455125, -4.69875, 3.8675, 0.8925, -0.0367166421476, -0.235836220507, 0.0372092167673, -0.20125, 1.65375, 0.65625
8.3904671669, 0.0178834291728, 0.364778397283, 0.00744578713488, -4.445, 3.5, 0.84875, -0.0337679801396, -0.239989838611, 0.0169719655815, -0.21875, 1.72375, 0.53375
8.4407119751, 0.06518557763, 0.356795501799, 0.00985108757925, -4.4975, 3.84125, 0.875, 0.00440793608695, -0.244141769275, 0.00119229212105, -0.105, 1.72375, 0.4375
8.49092316628, 0.351402786092, 0.338703920812, 0.00397069284528, -2.2575, 3.85875, 0.8575, -0.0110826145926, -0.239173099801, -0.0197990690438, -0.315, 1.89, 0.35
8.54110598564, 0.331223756735, 0.349412675857, -0.00845123879533, -4.43625, 3.7975, 0.74375, -0.00364191782002, -0.260367710839, -0.0232547459254, -0.2275, 1.4525, 0.34125
8.59136605263, 0.301403742955, 0.350736767445, -0.00845050342421, -4.445, 3.77125, 0.805, 0.00824754656579, -0.28086034578, 0.00912115580039, -0.11375, 1.5925, 0.63
8.64157915115, 0.270949531794, 0.35425928163, 0.00493759222639, -4.36625, 3.70125, 0.72625, 0.0125405127183, -0.304459380081, -0.00219186380168, -0.09625, 1.60125, 0.49875
8.69178915024, 0.248223458678, 0.369168766308, 0.014065004733, -4.4625, 3.80625, 0.91, -0.00139146622837, -0.313043388079, -0.0108298687114, -0.3325, 1.60125, 0.525
8.74196100235, 0.210373501529, 0.34985170071, 0.0327126538338, -4.7775, 3.89375, 0.81375, -0.011717087645, -0.295702644344, -0.0104771936563, -0.245, 1.77625, 0.5775
8.79217195511, 0.209027536238, 0.381979877575, 0.000917249605345, -4.36625, 3.78875, 0.53375, -0.00161834099243, -0.271681641919, -0.00109152686157, -0.13125, 1.67125, 0.46375
8.84243392944, 0.191681073918, 0.375517080752, -0.0081683250377, -4.36625, 3.80625, 0.665, -0.0111095205835, -0.258068416959, -0.00800647308208, -0.28, 1.81125, 0.34125
8.8926949501, 0.183561669873, 0.394893835409, 0.00035365671946, -4.45375, 3.71, 0.7175, -0.0178387116726, -0.231397917737, -0.0298027431965, -0.2275, 1.785, 0.385
8.94286799431, 0.135334952597, 0.387226506681, 0.0139064619428, -4.68125, 3.815, 0.83125, -0.00823935645482, -0.227907313367, -0.0105327219892, -0.21875, 1.6275, 0.455
8.99307012558, 0.309161680444, 0.388826873371, -0.0104766892437, -4.36625, 3.68375, 0.5425, 0.0258450091444, -0.226454431444, 0.0290358956699, -0.07875, 1.67125, 0.7175
9.04333496094, 0.274520961159, 0.36988726743, -0.000816118287418, -4.48, 3.675, 0.945, 0.034581957407, -0.20456558947, 0.0351140754926, -0.34125, 1.9075, 0.56875
9.09399700165, 0.453792030685, 0.351896567957, -0.0150582002315, -2.31875, 3.56125, 0.77875, 0.0388792469497, -0.212868314724, 0.0237424110341, -0.16625, 1.67125, 0.41125
9.14418101311, 0.409521544855, 0.351436220045, 0.00334785781246, -4.50625, 3.71875, 0.945, 0.0288646900293, -0.229348334926, -0.0104736470624, -0.23625, 1.715, 0.37625
9.19436097145, 0.332712451332, 0.364188338236, 0.00749426482809, -4.585, 3.535, 0.81375, 0.0332653989237, -0.23272215129, -0.00178865412051, -0.245, 1.61, 0.70875
9.24457097054, 0.305227377021, 0.356045798574, 0.00624256905968, -4.45375, 3.7625, 0.7525, 0.0208044758154, -0.212858198291, -0.00881217885385, -0.175, 1.61, 0.51625
9.29472208023, 0.0928395078486, 0.327184887161, 0.00833133284451, -4.57625, 3.59625, 0.76125, 0.00278671286941, -0.214748626554, 0.0108564216155, -0.3675, 1.61875, 0.49875
9.34491109848, 0.0970250013574, 0.3560072586, 0.0255308796041, -4.47125, 3.89375, 0.875, 0.00339223742422, -0.238833887509, -0.0136487984914, -0.0175, 1.54875, 0.4725
9.39506411552, 0.15593372599, 0.31462679152, 0.0407062612314, -4.13875, 3.43, 0.88375, -0.000693058917743, -0.232486153994, -0.0199082241002, -0.21, 1.715, 0.5075
9.44526815414, 0.183393818052, 0.293685201131, 0.0336420715974, -4.48875, 3.56125, 0.95375, 0.0179861222766, -0.252501284735, -0.0334931615212, -0.0875, 1.61875, 0.42875
9.49546504021, 0.18976784336, 0.291480261624, 0.0144718201945, -4.445, 3.50875, 0.63, 0.0227733831397, -0.267010936572, -0.031041014749, -0.06125, 1.72375, 0.37625
9.54562306404, 0.207211953121, 0.340911511916, 0.0144046743575, -4.45375, 4.01625, 0.84, 0.0348064403431, -0.256491358623, -0.0270232219466, -0.2275, 1.7325, 0.48125
9.59583306313, 0.199904182028, 0.378413324652, 0.0192502862296, -4.31375, 3.92, 0.77875, 0.0399157166779, -0.319895500485, -0.0214063097768, -0.14, 1.39125, 0.4025
9.64599013329, 0.176533898699, 0.386199563671, -0.0104135413386, -4.59375, 3.9375, 0.6475, -0.0150961925418, -0.325451319853, -0.0150721998273, -0.525, 1.54875, 0.3675
9.69618010521, 0.209967457946, 0.379746646574, 0.00457253151572, -4.2875, 3.6925, 0.9275, -0.00566791595885, -0.306628069081, -0.0225759818601, -0.2625, 1.7675, 0.5775
9.7463991642, 0.200823640936, 0.364807283725, 0.00664875052774, -4.36625, 3.5875, 0.86625, -0.0287435119267, -0.302056235956, -0.0219165453067, -0.42, 1.8025, 0.46375
9.79659509659, 0.147979184242, 0.363479509835, -0.00397256086528, -4.52375, 3.57875, 0.84, -0.0570812701945, -0.299478996012, -0.0339766615286, -0.41125, 1.5225, 0.5775
9.84678316116, 0.135738139236, 0.367643402967, -0.00324777430088, -4.515, 3.77125, 0.805, -0.0658383288576, -0.30317798677, -0.0439260958381, -0.4375, 1.6625, 0.60375
9.89697599411, 0.121535392781, 0.386941156403, 0.0305893028163, -4.62875, 3.78875, 0.98, -0.0484315463746, -0.321136669283, -0.0567101376289, -0.27125, 1.58375, 0.3675
9.9471590519, 0.130253051338, 0.414536353018, 0.0158513517531, -4.61125, 3.85, 0.77, -0.00474134730711, -0.306301131908, -0.0483599403315, 0.0525, 1.8375, 0.6125
9.99735307693, 0.168279971584, 0.385024445944, 0.01140959492, -4.3925, 3.57875, 0.74375, 0.00123200868124, -0.294353916845, -0.0490140516685, -0.25375, 1.75875, 0.315
10.0475251675, 0.176594276983, 0.393494801215, 0.0169992718852, -4.43625, 3.82375, 0.79625, 0.0077329270318, -0.324576672645, -0.0489313818515, -0.16625, 1.39125, 0.53375
10.0978140831, 0.16792347792, 0.373962710086, 0.0452754692043, -4.55875, 3.6225, 0.9625, 0.000747553806185, -0.323342644358, -0.0334667273697, -0.1225, 1.5575, 0.385
10.1481170654, 0.198793017115, 0.378409795169, 0.0446056300555, -4.31375, 3.84125, 0.81375, -0.019959481417, -0.31498254193, -0.0605755491695, -0.37625, 1.6275, 0.315
10.1983339787, 0.208317609477, 0.347836990678, 0.0332005043105, -4.52375, 3.85, 0.81375, -0.032022711953, -0.290159773067, -0.101700325345, -0.18375, 1.68, 0.3325
10.2485439777, 0.173324763677, 0.36276046245, 0.0332499084915, -4.62, 3.84125, 0.81375, -0.0451908966819, -0.266491916184, -0.0892447635291, -0.48125, 1.82, 0.37625
10.298789978, 0.152243058578, 0.374498474584, 0.0528024258781, -4.52375, 3.80625, 0.875, -0.0444821263124, -0.249420952109, -0.0987557584586, -0.3675, 1.7675, 0.2275
10.3489570618, 0.111855189703, 0.355818137972, 0.0534647184651, -4.445, 3.6575, 0.9275, -0.0234747200817, -0.201117874088, -0.0874111979163, -0.2975, 2.05625, 0.4025
10.3991401196, 0.13299020366, 0.350500191757, 0.0512389219568, -4.38375, 3.465, 0.8925, -0.0375670232662, -0.191392978011, -0.125095570312, -0.175, 1.8025, 0.1225
10.4492931366, 0.146093608468, 0.343564639791, 0.0649336741065, -4.52375, 3.85875, 0.8575, -0.053879859961, -0.15710048097, -0.124436670758, -0.2275, 1.88125, 0.37625
10.4994680882, 0.168595990573, 0.369492372408, 0.0499183984236, -4.41, 3.73625, 0.90125, -0.0176556679116, -0.203842500627, -0.0934538329823, -0.2275, 1.645, 0.4025
10.5496239662, 0.156375252364, 0.38275132165, 0.0476664027231, -4.515, 3.77125, 0.74375, -0.0241910910084, -0.203749925508, -0.0508901047156, -0.25375, 1.7325, 0.70875
10.5998051167, 0.158731308974, 0.375965713483, 0.0392993075852, -4.445, 3.77125, 0.8225, -0.0666600553451, -0.162687445695, -0.0872458863377, -0.28, 1.84625, 0.4025
10.6499950886, 0.158709860269, 0.359119727921, 0.041864939144, -4.50625, 3.71875, 0.86625, 0.17052785517, -0.152039331013, -0.0878616679335, -0.20125, 1.75875, 0.44625
10.7001919746, 0.163067486818, 0.360961979616, 0.0176931007066, -4.38375, 3.6925, 0.6825, 0.148625062688, -0.187164358121, -0.0712979510262, -0.2625, 1.715, 0.34125
10.7504360676, 0.18852119789, 0.34357878314, 0.0333825204151, -4.41875, 3.80625, 0.9275, 0.1254379207, -0.23053656707, -0.0698882062981, -0.1925, 1.67125, 0.42875
10.8006660938, 0.207602170291, 0.327898814344, 0.0359348415363, -4.55, 3.6925, 0.67375, 0.135639715767, -0.223272119327, -0.0416019471014, -0.27125, 1.86375, 0.51625
10.8509161472, 0.00737025793561, 0.317385539618, 0.0105272216444, -4.4625, 3.59625, 0.76125, 0.065503169771, -0.219662916655, -0.0663775771522, -0.39375, 1.79375, 0.23625
10.9011311531, 0.0600991680351, 0.371049058382, 0.0370835945787, -4.45375, 3.98125, 1.0325, 0.00766081076306, -0.245320516241, -0.0797762537439, -0.20125, 1.68, 0.49875
10.9513361454, 0.0664803261084, 0.354524737289, 0.0371827116088, -4.6375, 3.57875, 0.81375, -0.0225847432819, -0.237959618155, -0.0685987655326, -0.3325, 1.75, 0.42875
11.0015439987, 0.0667490641478, 0.393902537204, 0.0347254964031, -4.73375, 3.89375, 0.79625, -0.0470836420584, -0.271372290706, -0.0549075000814, -0.25375, 1.51375, 0.49875
11.0518119335, 0.110753817764, 0.385713699622, 0.0143691368779, -4.33125, 3.89375, 0.6825, -0.0124152500673, -0.254424055472, -0.0562425750659, -0.23625, 1.6625, 0.35875
11.1027851105, 0.153273092389, 0.379703096694, 0.000846500871075, -4.235, 3.64875, 0.595, -0.00911921729904, -0.228110136439, -0.0479665872231, -0.18375, 1.785, 0.665
11.1530070305, 0.157876204835, 0.407822008322, -0.0142193342944, -4.38375, 3.955, 0.65625, -0.0171890660122, -0.216844210516, -0.109245435651, -0.16625, 1.8375, 0.00875
11.2032091618, 0.195674253325, 0.413667244067, 0.000720855299361, -4.27, 3.9025, 0.74375, 0.0143331708771, -0.248008179466, -0.0669006725893, -0.02625, 1.6625, 0.60375
11.2534370422, 0.204908645193, 0.380557967694, 0.00930389279248, -4.45375, 3.5175, 0.81375, 0.0149323684104, -0.250724125367, -0.0432945447974, -0.1925, 1.715, 0.49875
11.3036489487, 0.216442152346, 0.376983008449, 0.00638053784572, -4.24375, 3.8675, 0.595, 0.00688844657121, -0.282357887393, -0.0384749731573, -0.175, 1.30375, 0.48125
11.35384202, 0.1870806434, 0.396518736844, 0.010650735655, -4.61125, 3.99, 0.88375, -0.0167353582773, -0.279072388788, -0.0062697282574, -0.4725, 1.505, 0.56
11.4040989876, 0.181760321154, 0.376380176843, -0.00137790411942, -4.41875, 3.70125, 0.595, -0.0287831402046, -0.291373634918, -0.0252459798885, -0.23625, 1.505, 0.385
11.4542789459, 0.181262024121, 0.390396148919, -0.00219399210306, -4.3575, 3.8675, 0.91, -0.00658765920917, -0.252045129856, -0.0648238193387, -0.28875, 1.79375, 0.27125
11.5044519901, 0.203647239538, 0.414033380624, -0.0206196336035, -4.3575, 4.025, 0.5775, -0.00700100395943, -0.255394055183, -0.0868497936644, -0.455, 1.65375, 0.30625
11.5546081066, 0.203579264026, 0.409904538306, -0.00911940321882, -4.36625, 3.82375, 0.77875, 0.00701418679286, -0.256269184698, -0.0885033328681, -0.28, 1.60125, 0.35
11.6048309803, 0.227499203861, 0.394047676028, -0.00505421660724, -4.2525, 3.75375, 0.88375, -0.0247710086978, -0.233703039606, -0.0908926996232, -0.34125, 1.72375, 0.4025
11.6550040245, 0.215323169615, 0.345508255824, -0.00217027390668, -4.4275, 3.43, 0.77875, 0.00391468465932, -0.255459515872, -0.0745390280253, -0.1925, 1.6975, 0.53375
11.7051899433, 0.240074267388, 0.339961687218, 0.0127370781356, -4.10375, 3.71875, 0.76125, -0.012581605426, -0.265072207857, -0.0727566127005, -0.3675, 1.5925, 0.53375
11.7554399967, 0.235360156584, 0.350343966646, 0.0314620332898, -4.375, 3.8675, 0.875, 0.029181399605, -0.244858488364, -0.0068253562874, -0.13125, 1.63625, 0.60375
11.8057129383, 0.214129226833, 0.361553612983, 0.0242292469648, -4.54125, 3.75375, 0.6825, 0.00797193368003, -0.257447875575, 0.0220789614072, -0.35875, 1.575, 0.51625
11.8559119701, 0.237532173735, 0.366170926517, 0.0548581900415, -4.26125, 3.9375, 0.945, 0.00111726628083, -0.270882779216, 0.0279914587398, -0.27125, 1.56625, 0.49875
11.9060671329, 0.290659704653, 0.313496105431, 0.0270333705402, -4.20875, 3.71, 0.63875, 0.0338647371187, -0.258973546048, 0.0469437734213, -0.21875, 1.6625, 0.62125
11.9562280178, 0.269246860769, 0.320506845399, 0.0223920301376, -4.5325, 3.6575, 0.7, 0.0424779370662, -0.258381072299, 0.0389444564713, 0.035, 1.75875, 0.60375
12.0064320564, 0.268877457223, 0.342548044773, 0.0268575444114, -4.5675, 3.87625, 0.8925, 0.0242546290236, -0.243901168562, 0.00560250974174, -0.28, 1.82, 0.35875
12.056581974, 0.237726666315, 0.37832377464, 0.0339733998759, -4.31375, 3.78, 0.90125, 0.0106568745582, -0.225408951882, 0.0344372296017, -0.28875, 1.6975, 0.81375
12.1069331169, 0.217096099715, 0.368117257458, 0.0387759538995, -4.515, 3.955, 0.83125, -0.00405793160786, -0.230406251024, 0.0470141559774, -0.21875, 1.75875, 0.455
12.1571500301, 0.216261806693, 0.349634980687, 0.00840567039274, -4.5675, 3.70125, 0.74375, -0.0415967321421, -0.208973656997, 0.0384375697075, -0.16625, 1.68, 0.37625
12.2074029446, 0.231997063421, 0.350216834356, 0.0313660930181, -4.3575, 3.70125, 0.90125, -0.00832085303512, -0.199068662167, -0.000758068536904, -0.11375, 1.9075, 0.23625
12.2576711178, 0.255763359234, 0.340890572246, 0.00595263181021, -4.2, 3.8325, 0.7, 0.00135559813739, -0.19504480472, 0.0104103680366, -0.41125, 1.6625, 0.63875
12.3087649345, 0.249205820979, 0.342433863519, -0.00798336823373, -4.4975, 3.94625, 0.70875, 0.0167580344913, -0.206423791823, 0.0161773981096, 0.0175, 1.77625, 0.5775
12.3590271473, 0.201869793494, 0.367311786505, -0.0289106254424, -4.5675, 3.7975, 0.74375, -0.00184314285585, -0.222124194239, -0.0169511767781, -0.1575, 1.68, 0.2275
12.4092099667, 0.18000203273, 0.380547547069, -0.0152226066083, -4.375, 3.96375, 0.76125, -0.0197829457132, -0.247870597334, -0.0109729531902, -0.14875, 1.4, 0.55125
12.4593961239, 0.22141148186, 0.370211661814, 0.00577321978252, -4.27, 3.71875, 0.93625, -0.036680267425, -0.237105165456, -0.0279937828757, -0.4025, 1.8725, 0.315
12.5096001625, 0.230743300307, 0.367233946069, -0.00611619197616, -4.34875, 3.6575, 0.67375, -0.0542135166142, -0.24933018402, -0.0222799641293, -0.37625, 1.68, 0.39375
12.559841156, 0.218352073249, 0.379871996316, 0.0238908844993, -4.45375, 3.9025, 0.93625, -0.0790029484575, -0.255907449056, -0.0343642709447, -0.41125, 1.6975, 0.455
12.6100749969, 0.197236161398, 0.389949185314, 0.0145207048, -4.50625, 3.78875, 0.93625, -0.0347978994255, -0.290730280362, -0.0478198035187, -0.07875, 1.2775, 0.2975
12.6602380276, 0.205036290733, 0.393546340105, 0.012606770888, -4.33125, 3.745, 0.8925, -0.0491887985347, -0.293729027093, -0.0554890408502, -0.2625, 1.505, 0.41125
12.710463047, 0.196322705944, 0.385576531936, 0.0218958359774, -4.45375, 3.78, 0.70875, -0.0712946341318, -0.267928460751, -0.0216310107798, -0.42875, 1.72375, 0.46375
12.7606489658, 0.188196391815, 0.369441990868, 0.0303056271417, -4.36625, 3.73625, 0.9625, -0.0787511536467, -0.251984553208, 0.00177388126839, -0.34125, 1.6275, 0.55125
12.8108921051, 0.20086407737, 0.375798012603, 0.0499800579847, -4.41, 3.78875, 1.0675, -0.0994909344539, -0.243269988099, -0.0155806561726, -0.55125, 1.68, 0.46375
12.8611450195, 0.206038662403, 0.364841751188, 0.0348259622709, -4.375, 3.70125, 0.805, -0.0660873912169, -0.237688821324, 0.0198784516502, -0.28875, 1.715, 0.595
12.9113259315, 0.220741316546, 0.363496818462, 0.00402902943941, -4.34, 3.64, 0.67375, -0.0603582868857, -0.210602945272, -0.00047845416336, -0.2625, 1.89875, 0.5075
12.9615981579, 0.229865419762, 0.377504180659, 0.0219776624613, -4.41, 3.91125, 0.90125, -0.0665396911396, -0.205745797104, 0.0262942069149, -0.21, 1.7325, 0.56875
13.011811018, 0.237940990007, 0.344965886334, 0.0419219065937, -4.31375, 3.59625, 0.93625, -0.0615996498231, -0.236616595654, 0.0443558076011, -0.27125, 1.51375, 0.455
13.0619871616, 0.231969701906, 0.36340986793, 0.0439892443409, -4.3925, 3.80625, 0.7875, -0.035865894721, -0.214122248232, 0.0201896337412, -0.13125, 1.84625, 0.525
13.1129641533, 0.222615912689, 0.361717043721, 0.0425686591245, -4.41, 3.85875, 0.86625, -0.0364913747241, -0.200701521068, 0.0258486033304, -0.32375, 1.84625, 0.51625
13.1631801128, 0.189870750351, 0.403252974873, 0.0349880525018, -4.50625, 3.78875, 0.77875, -0.00642321217383, -0.212527658858, 0.0382678818278, -0.25375, 1.67125, 0.51625
13.2133481503, 0.188307807784, 0.377984909647, 0.0242853225264, -4.38375, 3.47375, 0.79625, 0.0125571981392, -0.223997403675, 0.0436419842805, -0.245, 1.67125, 0.595
13.2635350227, 0.236986391875, 0.387672249133, 0.0370857501218, -4.3575, 3.91125, 0.84875, 0.00228694744347, -0.186031607279, 0.0300292565405, -0.3675, 1.8375, 0.56875
13.3137130737, 0.224371477418, 0.394152021797, 0.0238844575986, -4.43625, 3.8325, 0.74375, -0.0217750725708, -0.165348101896, -0.00809380220218, -0.3675, 1.84625, 0.2625
13.3638720512, 0.265945557038, 0.38178307389, 0.0093885195894, -4.36625, 3.71875, 0.77, -0.0206587779041, -0.193527516282, -0.0457748818054, -0.3325, 1.75, 0.28
13.4141049385, 0.241965901201, 0.389819289851, 0.0236747008674, -4.47125, 3.7975, 0.76125, -0.0289861101023, -0.184107288189, -0.0351076542624, -0.25375, 1.8375, 0.4725
13.4642651081, 0.230942379973, 0.376203624779, 0.0180965077026, -4.41875, 3.59625, 0.77875, -0.0123687491829, -0.182514403433, -0.0458046999525, -0.1225, 1.70625, 0.42875
13.5144381523, 0.238098245, 0.413953692464, -0.0050421458848, -4.48, 3.85, 0.56, -0.0289565681543, -0.206173000103, -0.0309423762654, -0.28875, 1.6975, 0.4725
13.5646550655, 0.42249707845, 0.389802490896, 0.0117233618333, -4.40125, 3.5525, 0.81375, -0.044807320205, -0.213600130083, -0.022305824775, -0.2975, 1.56625, 0.315
13.614866972, 0.38946662019, 0.395141015863, 0.00263183077648, -4.33125, 3.78875, 0.67375, -0.00998303642945, -0.232658244831, 0.0325983037391, -0.11375, 1.575, 0.49875
13.6650600433, 0.367130462354, 0.366601722849, 0.00498928292895, -4.3225, 3.6225, 0.8575, -0.0185887595079, -0.233215678313, -0.000500373971367, -0.39375, 1.82875, 0.18375
13.7152481079, 0.323125607056, 0.389103905957, 0.0123089372552, -4.48, 3.87625, 0.84875, -0.0127359556812, -0.22473297949, 0.0226557273749, -0.32375, 1.9075, 0.56875
13.7654099464, 0.271682317544, 0.386931747443, 0.018974965259, -4.55, 3.80625, 0.76125, 0.0300307383084, -0.208005342048, 0.0177665252563, -0.175, 2.05625, 0.53375
13.8156330585, 0.254487677211, 0.391014715429, 0.00912722185983, -4.31375, 3.73625, 0.81375, 0.00139739802979, -0.215171827059, -0.0287016145424, -0.2975, 1.63625, 0.14
13.8658151627, 0.243214016686, 0.360280977547, 0.0573867447358, -4.3225, 3.56125, 0.93625, -0.0627585468363, -0.222691511926, -0.0341454770014, -0.2625, 1.6625, 0.55125
13.9160010815, 0.242389268164, 0.348166082632, 0.00631043691241, -4.5675, 3.92875, 0.51625, -0.0306644806436, -0.245384612194, 0.013318447266, -0.14875, 1.46125, 0.56
13.9661829472, 0.231288026492, 0.367535574239, 0.0389445585091, -4.43625, 3.78, 1.00625, -0.0272266563892, -0.251007882289, 0.0661546480569, -0.42, 1.75, 0.84
14.0163841248, 0.279780801458, 0.351241315133, 0.0287150923924, -4.10375, 3.77125, 0.76125, -0.0220560916753, -0.231278884654, 0.0881927649261, -0.13125, 1.6975, 0.58625
14.0665881634, 0.260445204263, 0.350606168732, 0.0420738023541, -4.4275, 3.66625, 0.79625, -0.0266386408313, -0.207544806913, 0.0574142756311, -0.28, 1.77625, 0.35875
14.1167719364, 0.221823303908, 0.362244397006, 0.0259823019161, -4.38375, 3.7975, 0.875, -0.039096819166, -0.16795641424, 0.0615680069351, -0.34125, 1.77625, 0.6475
14.1670751572, 0.211389376165, 0.371192961575, 0.0108656645521, -4.585, 3.8325, 0.81375, -0.0167959235245, -0.160419695534, 0.0866650856174, -0.14, 1.74125, 0.56875
14.2173340321, 0.186035355225, 0.410712168988, -0.00929843054155, -4.41, 3.8675, 0.86625, -0.0133014782493, -0.156063458044, 0.0564580974151, -0.2275, 1.75875, 0.4375
14.2674870491, 0.164568523959, 0.386759171192, -0.000320555864793, -4.3225, 3.47375, 0.91875, 0.00637847235624, -0.171577760914, 0.0511847030156, -0.2625, 1.81125, 0.49
14.3176879883, 0.180238004407, 0.393149928666, 0.000672849749518, -4.3225, 3.885, 0.74375, -0.0127734373914, -0.153377986341, 0.0186671094426, -0.35, 1.95125, 0.35875
14.3678431511, 0.398730283569, 0.410751442219, 0.00287750829711, -4.2175, 3.8675, 0.6475, -0.0217239842871, -0.122011168936, 0.0168278586485, -0.48125, 2.1175, 0.525
14.4180121422, 0.312675626722, 0.396535301378, 0.0161244535486, -4.41875, 3.92875, 1.00625, -0.00278028454528, -0.167123642154, -0.0370044910452, -0.21, 1.68, 0.25375
14.4681839943, 0.319192257645, 0.395206094116, 0.0182808073744, -4.0775, 3.77125, 0.77875, 0.00527046951833, -0.151257650145, -0.0856661377466, -0.00875, 1.8025, 0.2975
14.5184061527, 0.310733228692, 0.402704436234, 0.00191495397323, -4.57625, 3.78875, 0.86625, 0.00829158030984, -0.142868696617, -0.0777445715748, -0.39375, 1.7325, 0.39375
14.5705850124, 0.281950773717, 0.380545284015, -0.00779974855351, -4.38375, 3.64875, 0.62125, -0.000455187954123, -0.160296279834, -0.093846542678, -0.1575, 1.74125, 0.385
14.6209030151, 0.274180126711, 0.373241680052, -0.000747796328346, -4.47125, 3.745, 0.8925, -0.0142837022428, -0.158764986666, -0.0736956995692, -0.4025, 1.74125, 0.37625
14.6711161137, 0.270896062372, 0.377310684758, 0.0200353564766, -4.38375, 3.78, 0.7875, -0.040371318935, -0.189463425279, -0.0435749149859, -0.385, 1.72375, 0.6125
14.7213101387, 0.241163310521, 0.396346654654, -0.00392636125393, -4.55875, 3.94625, 0.76125, -0.0286782683374, -0.189127874476, -0.0225631811386, -0.1225, 1.8725, 0.60375
14.771476984, 0.43675430337, 0.361857961243, -0.00766556735411, -4.24375, 3.535, 0.76125, -0.0206162076179, -0.236255470493, -0.04577055905, -0.455, 1.63625, 0.35875
14.8217000961, 0.41059598573, 0.358454948607, -0.00037660955683, -4.3575, 3.6925, 0.84, -0.0423391281705, -0.227991931099, -0.0424541528305, -0.41125, 1.6975, 0.3675
14.8718571663, 0.361757748441, 0.337148508371, -0.00751005374103, -4.445, 3.57, 0.79625, -0.0457596938181, -0.268898464191, -0.0439678637927, -0.3325, 1.505, 0.34125
14.9221539497, 0.313250148614, 0.356791262603, -0.00323432917721, -4.45375, 3.745, 0.875, -0.0934435667934, -0.244883230395, -0.0670708227049, -0.35, 1.70625, 0.3325
14.9724080563, 0.291832620377, 0.351288422708, 0.0133626933665, -4.57625, 3.78, 0.83125, -0.0496167891027, -0.22063041662, -0.057257366391, 0.035, 1.95125, 0.53375
15.0225901604, 0.282268480255, 0.351996760154, -0.0120018465359, -4.305, 3.68375, 0.67375, -0.0303766392558, -0.202433323716, -0.044305120099, -0.14875, 2.1175, 0.42
15.0726959705, 0.239349969006, 0.365079875725, -0.020513995694, -4.55875, 3.815, 0.595, -0.0642450777972, -0.20470849221, -0.0673421472802, -0.4725, 1.8375, 0.35875
15.1230249405, 0.218935974895, 0.375239699337, -0.0231213365122, -4.62, 4.0075, 0.7875, -0.0848535130158, -0.17128887869, -0.062289639297, -0.34125, 2.05625, 0.28875
15.1732230186, 0.205965575699, 0.384069740817, 0.00237754568263, -4.47125, 3.7275, 0.8575, -0.0506479609885, -0.173428342565, -0.0826848970475, -0.0875, 1.61, 0.20125
15.2234110832, 0.207994616316, 0.341183990062, -0.00869168799707, -4.34875, 3.395, 0.84875, -0.0484648484007, -0.157589457478, -0.0405922666085, -0.0875, 1.8375, 0.7875
15.2735950947, 0.221640575294, 0.315554378755, -0.00570574054987, -4.445, 3.745, 0.76125, -0.0372193744841, -0.188090214501, -0.0275362623576, -0.035, 1.61, 0.23625
15.3237769604, 0.226903865988, 0.328036546791, 0.00523585015461, -4.515, 3.77125, 0.84875, -0.0518501933321, -0.216103073746, -0.0444843725096, -0.3325, 1.58375, 0.18375
15.3739881516, 0.242192131451, 0.336309602901, 0.00464853862523, -4.43625, 3.9025, 0.69125, -0.053376156599, -0.200380989734, -0.0412373417328, -0.32375, 1.88125, 0.385
15.4241991043, 0.236849313827, 0.366968450515, -0.00355821534221, -4.40125, 3.66625, 0.8225, -0.0639259681607, -0.212328991516, -0.0547640221232, -0.0875, 1.715, 0.3325
15.474419117, 0.2360729442, 0.352181944917, 0.00268784557281, -4.43625, 3.59625, 0.8925, -0.0581700342102, -0.209748983128, -0.0395013579198, -0.2975, 1.82, 0.60375
15.524613142, 0.230981584802, 0.353154875383, 0.00354715491398, -4.41, 3.71, 0.7875, -0.0694327277102, -0.215709176334, -0.013663599915, -0.315, 1.88125, 0.6125
15.5748031139, 0.454015575321, 0.340608654154, -0.0264548740677, -4.13, 3.6925, 0.62125, -0.0521637085008, -0.223809489547, 0.00602473566194, -0.48125, 1.88125, 0.46375
15.6249699593, 0.42142761601, 0.319718009865, -0.00929594799484, -4.27875, 3.66625, 0.76125, -0.0703426038856, -0.242323186533, 0.0219000358862, -0.34125, 1.61875, 0.7175
15.675150156, 0.154143868968, 0.32230908799, 0.00451528212418, -6.71125, 3.7275, 0.91, -0.0901425091473, -0.227044281092, -0.0033909709322, -0.455, 1.7325, 0.3675
15.7253191471, 0.191317130478, 0.331798325145, -0.00694535933148, -4.17375, 3.82375, 0.6825, -0.0605761391684, -0.210451530916, -0.0249865178096, -0.25375, 1.61, 0.39375
15.7755811214, 0.217129375687, 0.347669143368, -0.0151932410585, -4.06, 3.63125, 0.875, -0.0586066727264, -0.199040740042, -0.0475815794258, -0.2975, 2.03, 0.14
15.8257660866, 0.215489814876, 0.330440805515, -0.0485078727316, -4.4975, 3.66625, 0.5775, -0.0350315144176, -0.193405699491, -0.0525902214014, -0.21875, 1.785, 0.35875
15.8759970665, 0.221571750049, 0.363457052467, -0.0682838769126, -4.31375, 3.9025, 0.665, -0.0320530266782, -0.210521116587, -0.0262780793351, -0.18375, 1.54875, 0.56875
15.9262299538, 0.240673305786, 0.347523941249, -0.0577584462693, -4.445, 3.64875, 0.81375, -0.0126289064484, -0.205222393992, 0.0230787801647, -0.16625, 1.8025, 0.72625
15.9763989449, 0.222895377687, 0.395231892411, -0.0469893414781, -4.48875, 4.0425, 0.70875, 0.0104180857768, -0.204605139134, 0.0115638119334, -0.1925, 1.5225, 0.58625
16.0266330242, 0.189682755926, 0.390912832853, -0.0651288665973, -4.55875, 3.68375, 0.62125, -0.00197635052081, -0.224755162698, 0.0180741876661, -0.2275, 1.58375, 0.4375
16.0768830776, 0.1951555323, 0.406839394611, -0.0511218819438, -4.47125, 3.89375, 0.81375, -0.0181408439219, -0.242739181786, 0.0348975920095, -0.44625, 1.49625, 0.6475
16.1270811558, 0.194492133047, 0.369594668671, -0.026338601937, -4.6725, 3.54375, 0.90125, -0.033190675219, -0.216170613522, -0.00971790542507, -0.39375, 1.82, 0.42875
16.1772811413, 0.192576127768, 0.360784181624, -0.038776767569, -4.48875, 3.77125, 0.79625, -0.0180494469274, -0.233860696953, -0.0255015033943, -0.1925, 1.53125, 0.4025
16.2275099754, 0.195114247143, 0.340946668404, -0.0267977635578, -4.375, 3.66625, 0.81375, -0.0127802968101, -0.265015698078, -0.0372463459744, -0.21, 1.54875, 0.39375
16.2777380943, 0.192992540186, 0.340816801407, -0.0524486884818, -4.4975, 3.6225, 0.72625, -0.0127170404162, -0.246212715444, -0.0466620402393, -0.28875, 1.7325, 0.4375
16.3279280663, 0.19599895755, 0.33721160914, -0.0441759376703, -4.41875, 3.82375, 0.79625, 0.0106966972629, -0.238769799509, -0.0462387525938, 0.0, 1.6625, 0.2975
16.3781051636, 0.228111990054, 0.298159763063, -0.0368062585616, -4.19125, 3.57875, 0.72625, -0.0170681076953, -0.233865683842, 0.00869369935909, -0.3325, 1.47, 0.65625
16.4282879829, 0.229695711944, 0.328646908081, -0.0287930694349, -4.52375, 3.82375, 0.7525, -0.00814016723323, -0.230431203912, 0.0175868964809, -0.1925, 1.7325, 0.5425
16.4784679413, 0.266125674007, 0.330827345991, -0.0473183976181, -4.2875, 3.745, 0.735, -0.013720181913, -0.212483097652, -0.0215149024654, -0.18375, 1.89, 0.14875
16.5286509991, 0.293124295946, 0.278807650253, -0.0386204020706, -4.2525, 3.43875, 0.77875, -0.00341584734955, -0.220636309098, -0.00915707099701, -0.2275, 1.61, 0.63
16.5788090229, 0.287313861744, 0.295964527034, 0.00432622689051, -4.2175, 3.87625, 0.875, 0.00410009728218, -0.269970119333, -0.0274750047568, -0.21875, 1.60125, 0.2975
16.6289949417, 0.277999228013, 0.276643766898, -0.0265382562187, -4.41, 3.52625, 0.63875, -0.00604392120144, -0.246638296659, -0.050122253853, -0.35875, 1.77625, 0.32375
16.6792190075, 0.228652687221, 0.295568306068, -0.0186283887834, -4.50625, 3.92875, 0.74375, -0.00324951855585, -0.230676818265, -0.0314473730589, -0.32375, 1.855, 0.5075
16.7294330597, 0.234158676649, 0.303447827915, -0.0252689949146, -4.27875, 3.71875, 0.65625, 0.0169653899698, -0.240185722794, -0.0608648721777, -0.14, 1.60125, 0.35875
16.7796370983, 0.214381028086, 0.332142740612, -0.0361603858808, -4.4975, 3.66625, 0.65625, -0.00419803412449, -0.231787935463, -0.0726180464639, -0.35, 1.715, 0.385
16.8298079967, 0.260727519475, 0.322044557906, -0.0073029213071, -4.27, 3.59625, 0.76125, -0.0347688668768, -0.227218404953, -0.0802305558722, -0.32375, 1.68875, 0.42
16.8799750805, 0.256551790775, 0.325243591904, -0.0189828662588, -4.40125, 3.675, 0.76125, -0.0413777821702, -0.215071908012, -0.0929417502565, -0.27125, 1.70625, 0.39375
16.9301860332, 0.261481950527, 0.313397309442, -0.0150561216696, -4.515, 3.64875, 0.76125, -0.0518935035578, -0.17513324549, -0.117675317708, -0.23625, 1.8025, 0.0525
16.9804570675, 0.266486591934, 0.313567888583, -0.0143966626971, -4.34, 3.66625, 0.88375, -0.0471388640937, -0.171925885962, -0.0679448066089, -0.13125, 1.74125, 0.42875
17.0306370258, 0.258679139467, 0.315664989752, -0.00687879678468, -4.57625, 3.87625, 0.735, -0.0475474799159, -0.184197467629, -0.0763402933532, -0.51625, 1.575, 0.42875
17.080862999, 0.266092602968, 0.327163641699, -0.000439325395588, -4.22625, 3.75375, 0.77, -0.0284534587319, -0.20358744878, -0.0356281376161, -0.14875, 1.575, 0.69125
17.1310889721, 0.265744007564, 0.333814794799, 0.0150977317866, -4.19125, 3.56125, 0.8225, 0.00472142858448, -0.18519650016, -0.0600811623222, -0.0875, 1.81125, 0.21875
17.1812911034, 0.260352646127, 0.346939983787, 0.0224366627472, -4.27, 3.8675, 0.72625, 0.0193093571534, -0.20684666513, -0.0894832414809, -0.23625, 1.645, 0.21
17.2314829826, 0.278315829026, 0.357401748181, -0.00681317285732, -4.36625, 3.75375, 0.74375, -0.0201432286352, -0.21985996888, -0.0826552830396, -0.39375, 1.81125, 0.525
17.2817120552, 0.253998321511, 0.346970416026, -0.00126117001443, -4.50625, 3.85, 0.91875, -0.0212185151945, -0.252599074793, -0.0893932792621, -0.2275, 1.61, 0.315
17.3319201469, 0.239234776382, 0.408121433283, -0.0375113929405, -4.48, 4.05125, 0.63, -0.00519429757677, -0.236343475524, -0.0700947005821, -0.1575, 1.5925, 0.5775
17.3820900917, 0.251567668869, 0.381053360959, -0.0396892282818, -4.26125, 3.6225, 0.665, 0.0181026189628, -0.217738215174, -0.0998692074715, 0.0525, 1.785, 0.37625
17.4322471619, 0.234782311784, 0.368228222377, -0.0458282749083, -4.41875, 3.57875, 0.91, -0.00948937864012, -0.258142954291, -0.104299058052, 0.07875, 1.68875, 0.48125
17.482416153, 0.247915055291, 0.351789624113, -0.0186733124081, -4.235, 3.80625, 0.84875, 0.0335174929714, -0.243849963678, -0.0554547633198, -0.1575, 1.75, 0.6475
17.5326061249, 0.234098694785, 0.382849595531, -0.0239928830506, -4.4275, 3.71875, 0.70875, 0.0340591693068, -0.270805970579, -0.0190608582891, -0.14875, 1.65375, 0.735
17.5828471184, 0.238044942776, 0.384995672381, -0.026201735271, -4.41, 3.85875, 0.76125, -0.0033895728615, -0.256240336169, -0.0333317952141, -0.4725, 1.67125, 0.37625
17.6330680847, 0.232023513284, 0.388233095165, -0.0105693150125, -4.31375, 3.61375, 0.86625, -0.010466998616, -0.239426705067, -0.00431462871111, -0.1575, 1.5575, 0.60375
17.6832520962, 0.23426404576, 0.381481307084, -0.0132286451602, -4.4625, 3.78, 0.65625, -0.015043268879, -0.218573131105, -0.043612349256, -0.1575, 1.79375, 0.1225
17.7334311008, 0.273003877066, 0.388699858738, -0.0180077025797, -4.31375, 3.78875, 0.70875, -0.036162547792, -0.229769236195, -0.0196185028974, -0.4025, 1.58375, 0.5075
17.7836811543, 0.309983140423, 0.347559385578, -0.0242412390896, -4.06875, 3.57875, 0.63, -0.0514316637115, -0.201213081318, -0.0301084873469, -0.21875, 1.8025, 0.35
17.8339159489, 0.306595209368, 0.368099542086, -0.0214163632963, -4.31375, 3.68375, 0.875, -0.0450521828457, -0.187044336281, -0.0111260872759, -0.27125, 1.855, 0.735
17.8840961456, 0.266929619588, 0.36858562909, -0.01177725427, -4.6375, 3.80625, 0.81375, -0.031069768105, -0.226893412387, -0.0426546306934, -0.21875, 1.44375, 0.2975
17.9343321323, 0.25129544268, 0.357676423606, -0.00652886836283, -4.68125, 3.68375, 0.77, -0.0534921109485, -0.23033529763, -0.0830184757755, -0.32375, 1.77625, 0.1225
17.9845089912, 0.260286808571, 0.369505403121, -0.0023433833739, -4.2875, 3.7975, 0.70875, -0.0314311098683, -0.254346591081, -0.0888124653782, -0.1225, 1.4175, 0.48125
18.0348031521, 0.285332314942, 0.374274376528, -0.0204781405329, -4.5325, 3.96375, 0.875, -0.0610741989933, -0.248770738775, -0.0395180969563, -0.28, 1.8725, 0.95375
18.085308075, 0.283252257593, 0.381082270489, 0.0154344355515, -4.2525, 3.80625, 0.88375, -0.0201090910661, -0.234471368567, -0.0123944426812, -0.27125, 1.77625, 0.42
18.1355121136, 0.28083432865, 0.401151639096, 0.0117718927968, -4.4275, 3.885, 0.735, -0.0383408637636, -0.209221808539, -0.0156819985717, -0.28875, 1.6975, 0.49875
18.1856989861, 0.293351975586, 0.422533294901, -0.0353777901512, -4.1825, 3.85, 0.42875, -0.0563952396836, -0.196321448425, -0.0355654269588, -0.3675, 1.8025, 0.42875
18.2358701229, 0.263027600225, 0.43201446887, -0.0489860100224, -4.34875, 3.85, 0.74375, -0.0154951441438, -0.219095373224, -0.0336629958366, -0.18375, 1.715, 0.42
18.2860331535, 0.250977356182, 0.422194219785, -0.0614086681182, -4.43625, 3.91125, 0.76125, -0.0435285667564, -0.198167252312, -0.0382470266277, -0.55125, 1.715, 0.4375
18.3362071514, 0.244198742657, 0.408779586223, -0.0577251690582, -4.3225, 3.5, 0.79625, 0.00440667483455, -0.180387676935, -0.0105928324116, -0.04375, 1.8025, 0.74375
18.3863840103, 0.250920883397, 0.407129068357, -0.0661873982434, -4.3925, 3.91125, 0.7525, 0.00111396595439, -0.162893866486, 0.00605832517197, -0.245, 1.925, 0.385
18.4365870953, 0.243095915551, 0.412274545369, -0.0593292925771, -4.48, 3.75375, 0.7875, -0.000237687576944, -0.169969031854, -0.00301025661071, -0.32375, 1.715, 0.5075
18.4868550301, 0.255657691597, 0.411192381749, -0.0337367269875, -4.3225, 3.70125, 0.90125, 0.0130174730627, -0.186199915801, -0.0247933078547, -0.2275, 1.7675, 0.4025
18.5370321274, 0.239009457174, 0.414304246295, -0.0435373239739, -4.4975, 3.6575, 0.875, -0.0202850121373, -0.201518488619, -0.0177688214261, -0.28, 1.79375, 0.77
18.5872850418, 0.233272660311, 0.424648939499, -0.0520077324188, -4.34, 3.78, 0.63, 0.00124164016878, -0.223479975782, -0.0111977453551, -0.0175, 1.6975, 0.51625
18.6375219822, 0.252782019367, 0.394302826895, -0.0608293869333, -4.17375, 3.45625, 0.6825, -0.00429959431696, -0.212420652345, -0.0208076563639, -0.28, 1.84625, 0.49875
18.6876709461, 0.237428435687, 0.374235289785, -0.064789303416, -4.5675, 3.5875, 0.7525, 0.0167273286033, -0.225748228399, -0.0358842016547, -0.23625, 1.645, 0.49875
18.7379341125, 0.218517032906, 0.374343084726, -0.095034335767, -4.50625, 3.7275, 0.49, -0.165740863831, -0.207231065003, -0.0314712033403, -0.2625, 1.82, 0.42875
18.788187027, 0.206261296654, 0.337417898628, -0.107195311971, -4.515, 3.7275, 0.5425, -0.130402599703, -0.227932162653, -0.0411091747057, -0.14, 1.63625, 0.3675
18.838365078, 0.210401985261, 0.3986901481, -0.086553632427, -4.4975, 4.025, 0.77875, -0.0897507451838, -0.244786296574, -0.0151730883604, -0.07875, 1.54875, 0.455
18.8885440826, 0.256563108061, 0.367114019961, -0.0971759422659, -4.1825, 3.6225, 0.62125, -0.0670131035989, -0.244964400225, -8.27015719526e-05, -0.27125, 1.715, 0.4725
18.9387440681, 0.28284111753, 0.346962356168, -0.0915175132354, -4.19125, 3.61375, 0.63, -0.0905956139151, -0.280196164182, 0.0233405117267, -0.53375, 1.51375, 0.6475
18.9889070988, 0.301569924679, 0.376878057647, -0.0643882671486, -4.43625, 3.84125, 0.805, -0.0714852025441, -0.238384253689, 0.0130419830488, -0.28, 1.715, 0.5075
19.039055109, 0.29645913899, 0.385496226694, -0.0536719963904, -4.19125, 3.7625, 0.735, -0.0608805140607, -0.233828745488, 0.0272340062695, -0.27125, 1.75875, 0.525
19.0891990662, 0.283131902582, 0.379964443622, -0.0464793170762, -4.40125, 3.6925, 0.665, -0.0686532163892, -0.237488783845, 0.0133545450783, -0.25375, 1.65375, 0.27125
19.1393771172, 0.287913156982, 0.4052415794, -0.0236891721485, -4.445, 3.89375, 0.79625, -0.0137604447477, -0.204861823423, 0.0467734633621, -0.28875, 1.82, 0.72625
19.1895360947, 0.285659657156, 0.413720679314, -0.0283182294403, -4.24375, 3.815, 0.6825, -0.0207734602456, -0.202125576973, 0.0436190053233, -0.30625, 1.74125, 0.37625
19.2397241592, 0.274559322296, 0.402738750245, -0.0352177658467, -4.4625, 3.605, 0.6825, -0.035291502799, -0.211196717348, -0.0192236056881, -0.32375, 1.5575, 0.175
19.289937973, 0.27038055106, 0.391393387698, -0.0177063903358, -4.29625, 3.675, 0.945, -0.0322636172672, -0.200519341052, -0.0512261206074, -0.2625, 1.86375, 0.25375
19.3401660919, 0.281433246358, 0.404428644035, -0.015247176172, -4.27, 3.85, 0.7175, -0.00574852998641, -0.210683166252, -0.018960657692, -0.14, 1.63625, 0.63875
19.3903710842, 0.320222336595, 0.434267231502, -0.0133459414294, -4.05125, 3.9025, 0.8925, -0.0141116783601, -0.220688028198, 0.00995068054254, -0.11375, 1.81125, 0.6125
19.4405469894, 0.325567592642, 0.428656457517, -0.0239652125578, -4.2875, 3.745, 0.7525, 0.00930454052833, -0.22299480284, -0.0270699487605, -0.18375, 1.72375, 0.2275
19.4906980991, 0.31370975004, 0.438374230588, -0.0421918221718, -4.41, 3.91125, 0.65625, 0.0289716778279, -0.252863290301, -0.027131658496, -0.1925, 1.5225, 0.46375
19.5408771038, 0.288696907779, 0.423182314099, -0.0465335883633, -4.45375, 3.9025, 0.735, 0.0338706031366, -0.271894838629, 0.00288277095639, -0.28, 1.51375, 0.525
19.5910480022, 0.312894495301, 0.41932767442, -0.0287097065742, -4.1825, 3.94625, 0.84, -0.00441731145938, -0.24933481929, -0.0194074555253, -0.4025, 1.82, 0.385
19.641215086, 0.284457041194, 0.42206791628, -0.0287098623251, -4.40125, 3.7275, 0.74375, 0.0220569777179, -0.218111203625, 0.0215999610245, -0.18375, 1.645, 0.3675
19.6927249432, 0.27592043303, 0.376750010968, -0.00373523963502, -4.33125, 3.61375, 0.7875, 0.00943978675635, -0.199310567442, 0.0140743715869, -0.21875, 1.9075, 0.525
19.7429609299, 0.676345550755, 0.387405008884, -0.0255430441044, -2.24, 3.80625, 0.6825, 0.00886872727265, -0.200429059628, 0.0135452409853, -0.16625, 1.6975, 0.49
19.7932059765, 0.574389896111, 0.403648057196, -0.0400573657245, -4.55, 3.85875, 0.60375, 0.00403116909084, -0.207110038299, -0.0184708548019, -0.3675, 1.67125, 0.32375
19.8434340954, 0.529657734265, 0.389965683696, -0.0530538196132, -4.24375, 3.56125, 0.6125, 0.00318522226722, -0.19003946792, -0.00557350315056, -0.2625, 1.82, 0.48125
19.8935940266, 0.473597764755, 0.409572203794, -0.0487785938867, -4.40125, 4.0075, 0.8575, 0.00362753003645, -0.175506969015, -0.281582037552, -0.2625, 1.785, -2.23125
19.9438230991, 0.423289189451, 0.408128485073, -0.0557281610482, -4.4975, 3.77125, 0.6825, 0.0315482993295, -0.183160644902, -0.198023950417, -0.18375, 1.81125, 0.6825
19.9940021038, 0.35846531911, 0.429001915618, -0.0518865794041, -4.64625, 3.9725, 0.76125, 0.0141452102112, -0.154187860134, -0.139512709854, -0.14875, 1.9425, 0.5075
20.0441739559, 0.337994408479, 0.437341551651, -0.0376831293174, -4.48875, 3.9375, 0.84875, 0.0365676202711, -0.179892166708, -0.111560294982, -0.06125, 1.67125, 0.42
20.0943880081, 0.310670423781, 0.434521991153, -0.0364655012724, -4.375, 3.85875, 0.7525, 0.0453672724196, -0.200450155034, -0.0786813389352, -0.28875, 1.61875, 0.5775
20.1446311474, 0.339268043263, 0.378900312834, -0.0488170560306, -4.27, 3.5525, 0.69125, 0.0631479915939, -0.20923816302, -0.0409181960838, -0.28, 1.70625, 0.60375
20.1948461533, 0.328832115043, 0.398421753396, -0.0380843153848, -4.40125, 4.025, 0.7175, 0.073197373191, -0.194120412046, -0.0436862388279, -0.13125, 1.95125, 0.32375
20.2451429367, 0.316739861866, 0.432320708226, -0.0672867159155, -4.2875, 3.89375, 0.6125, 0.0489961350563, -0.216637530381, -0.000601768105519, -0.30625, 1.6625, 0.60375
20.2953169346, 0.283021788112, 0.429442273663, -0.0513822398916, -4.48, 3.745, 0.805, 0.0646218693956, -0.200463899609, 0.00559506783453, -0.23625, 1.75875, 0.41125
20.3455080986, 0.29631014837, 0.438223241667, -0.0476871143122, -4.27875, 3.91125, 0.67375, 0.0778037142104, -0.204425758683, -0.00837299505403, -0.105, 1.6275, 0.63875
20.3956930637, 0.465257598162, 0.425189743175, -0.0520446563336, -4.2875, 3.815, 0.72625, 0.0202504076594, -0.21015887808, -0.00840591339439, -0.28, 1.63625, 0.525
20.4459469318, 0.219483654511, 0.429003691972, -0.0323861716302, -4.3575, 3.96375, 0.84, 0.0445753302041, -0.194428691245, 0.00504871015055, 0.00875, 1.60125, 0.4375
20.4961700439, 0.228744260154, 0.424742990497, -0.0568002990205, -4.3925, 3.9375, 0.5075, 0.0307660174653, -0.221412239908, 0.00509695522194, -0.35, 1.56625, 0.6125
20.5465750694, 0.203333315652, 0.414461390072, -0.0429906679859, -4.48875, 3.70125, 0.51625, 0.00715547414692, -0.223406414326, 0.00181103372977, -0.41125, 1.58375, 0.51625
20.598129034, 0.199824985678, 0.393626225959, -0.0185774410686, -4.48, 3.6575, 0.8575, -0.0031384093469, -0.232343276043, 0.022328243589, -0.35875, 1.79375, 0.44625
20.6483020782, 0.21381241456, 0.402592268724, -0.016701204539, -4.50625, 3.885, 0.83125, -0.022407111571, -0.199798053595, 0.0270558773071, -0.28875, 1.4525, 0.6825
20.6990520954, 0.215225555793, 0.397487237666, -0.0296579756766, -4.4975, 3.9025, 0.6125, -0.0230795343352, -0.185627781071, -0.0143582654431, -0.245, 1.925, 0.245
20.7492520809, 0.203770200193, 0.42406466251, -0.027465460298, -4.41875, 3.98125, 0.7, -0.0165969228116, -0.213583502667, -0.0119351950089, -0.1575, 1.5575, 0.56
20.7994570732, 0.217941362156, 0.420654876633, -0.0326020228414, -4.43625, 3.77125, 0.63875, 0.0261914925226, -0.219602637161, 0.0253774920428, -0.105, 1.72375, 0.63
20.849640131, 0.250364253012, 0.428534905065, -0.0418001246514, -4.235, 3.745, 0.6825, 0.020328848049, -0.18517282249, 0.0321669416992, -0.21875, 1.855, 0.58625
20.8998000622, 0.258307544939, 0.429263273103, -0.0549756009676, -4.33125, 3.7975, 0.74375, -0.0015611330803, -0.205077486217, -0.000587277223669, -0.28, 1.58375, 0.21
20.9500961304, 0.250479111401, 0.404215751213, -0.0488477367838, -4.34, 3.675, 0.69125, -0.000129517795047, -0.220762763836, -0.00909319455117, -0.25375, 1.6275, 0.35875
21.000316143, 0.280384272211, 0.395769532635, -0.0328532501154, -4.235, 3.91125, 0.84, -0.000460418472589, -0.213318554836, 8.15611721959e-05, -0.245, 1.88125, 0.4025
21.0505039692, 0.306248760491, 0.382948321434, -0.0353036325935, -4.33125, 3.94625, 0.6475, -0.0131504389628, -0.202063029417, -0.0385639354505, -0.385, 1.645, 0.27125
21.1006939411, 0.285286495998, 0.391988140362, -0.0431509424007, -4.50625, 3.7625, 0.77, 0.0115706444401, -0.191021053828, -0.0504417877149, -0.11375, 1.75875, 0.4025
21.1509349346, 0.318969561758, 0.365710393693, -0.0292072633446, -4.08625, 3.63125, 0.83125, -0.0315802780035, -0.172889553601, -0.0526253480491, -0.28875, 1.81125, 0.51625
21.2011590004, 0.306877845024, 0.354837918891, -0.0051378833091, -4.40125, 3.80625, 0.9275, -0.0496450251828, -0.178240538417, -0.0602565319198, -0.3325, 1.93375, 0.32375
21.2513699532, 0.305232699023, 0.373186842872, 0.00198623306767, -4.3575, 3.78, 0.665, -0.0587559733583, -0.143872352506, -0.0207140117695, -0.23625, 1.82, 0.44625
21.3015780449, 0.306950986208, 0.387056342726, 0.00437884878481, -4.305, 3.82375, 0.69125, -0.0449698384202, -0.13119910553, -0.0383458495333, -0.2625, 1.84625, 0.32375
21.3518819809, 0.318752268946, 0.422880323847, -0.0140623192359, -4.12125, 3.99875, 0.595, -0.0390115122083, -0.146119147931, -0.0434686243098, -0.1225, 1.82, 0.46375
21.4020740986, 0.327526837846, 0.427045562316, -0.0284829785811, -4.20875, 3.71875, 0.67375, -0.0302893248887, -0.157519009824, -0.0228270856909, -0.315, 1.68, 0.6475
21.4523050785, 0.331134238655, 0.412481905476, -0.0458512126507, -4.24375, 3.6575, 0.65625, -0.0289993531599, -0.138052897958, -0.0168699394096, -0.18375, 1.95125, 0.51625
21.5025370121, 0.334231233311, 0.436997843436, -0.022819482247, -4.305, 3.98125, 0.8225, -0.0127294760595, -0.145910347346, 0.0115803490782, -0.1575, 1.5575, 0.83125
21.5527000427, 0.338525819084, 0.407837677865, -0.0370574025581, -4.47125, 3.57875, 0.5775, -0.0265945380474, -0.168367393215, 0.036318824478, -0.18375, 1.715, 0.7
21.6028590202, 0.326305913458, 0.37128601907, -0.038446496072, -4.43625, 3.6925, 0.595, -0.0377315758184, -0.123390088504, 0.0117007478272, -0.3325, 2.17, 0.315
21.6530280113, 0.320170289901, 0.398116675447, -0.0498091618184, -4.41875, 3.885, 0.69125, 0.0011076812284, -0.15427762452, -0.00967965483399, -0.0875, 1.67125, 0.525
21.7038769722, 0.306487891338, 0.389809556401, -0.0580191289656, -4.36625, 3.89375, 0.70875, -0.010917778205, -0.166227375861, -0.0282705204155, -0.28875, 1.70625, 0.51625
21.7540521622, 0.317680191984, 0.363333240685, -0.0615504944621, -4.27875, 3.7275, 0.6125, -0.027833400346, -0.162781674447, -0.0356291215366, -0.37625, 1.8375, 0.2625
21.8042299747, 0.318608455507, 0.350462424955, -0.0602109005143, -4.305, 3.71875, 0.7175, 0.0156899457197, -0.164890656302, -0.0660020884446, 0.07, 1.82, 0.34125
21.8544261456, 0.301079314064, 0.392554607792, -0.0623207464749, -4.4625, 3.9725, 0.60375, -0.00800302957034, -0.170592788444, -0.0343087724761, -0.49875, 1.82875, 0.56875
21.9047250748, 0.315924244392, 0.395481732311, -0.0363348046447, -4.17375, 3.80625, 0.805, -0.012259953952, -0.20709265864, -0.0528576057057, -0.23625, 1.3825, 0.21
21.954996109, 0.272211137958, 0.386390203172, -0.0551861917622, -4.55, 3.84125, 0.595, -0.0093205627011, -0.240157553498, -0.0158196606216, -0.14875, 1.42625, 0.6125
22.0051879883, 0.291928521746, 0.40833856457, -0.0388683153274, -4.15625, 3.85875, 0.84, -0.0289021557879, -0.286540118334, -0.0275564251035, -0.37625, 1.51375, 0.53375
22.0553920269, 0.275845892353, 0.394207563571, -0.0437432518737, -4.4975, 3.75375, 0.7875, -0.0202544215694, -0.290372746265, -0.0272468839004, -0.0875, 1.365, 0.23625
22.1055660248, 0.245606655525, 0.406664813843, -0.0183870806159, -4.45375, 3.77125, 0.945, -0.0263664733241, -0.269287982027, 0.00102252163658, -0.28875, 1.6275, 0.60375
22.1557769775, 0.259528890975, 0.392560999213, -0.0133485352989, -4.2175, 3.63125, 0.72625, -0.0361468433925, -0.264198265442, -0.0194267574744, -0.27125, 1.77625, 0.2975
22.2060720921, 0.27920590169, 0.384811909363, -0.0142548135921, -4.40125, 3.7625, 0.7, -0.0601689431479, -0.254038095008, -0.00405317355424, -0.46375, 1.82875, 0.42
22.2563090324, 0.258044280369, 0.411172646584, -0.0266263990096, -4.5675, 3.7975, 0.7175, -0.0455018439498, -0.245720856957, 0.0237119294211, -0.28, 1.75875, 0.69125
22.3065090179, 0.283370530389, 0.41685360936, -0.056492644878, -4.24375, 3.78, 0.6125, 0.00896190576058, -0.250710504721, 0.041758996548, -0.035, 1.58375, 0.76125
22.3567171097, 0.272442629615, 0.445001423581, -0.0545390423512, -4.33125, 4.1125, 0.7175, 0.0170566436661, -0.214938008824, 0.0412197872038, -0.09625, 1.96875, 0.46375
22.4069240093, 0.249941029988, 0.422476153101, -0.0522566243045, -4.3575, 3.75375, 0.70875, 0.0183633813695, -0.164174787148, 0.0420080276351, -0.2275, 2.02125, 0.58625
22.4570870399, 0.268345760861, 0.40219511561, -0.0437208291179, -4.305, 3.56125, 0.805, -0.00108409498162, -0.207547169831, 0.009938102146, -0.175, 1.60125, 0.49
22.5073080063, 0.297285066298, 0.383515543644, -0.0357938715855, -4.17375, 3.56125, 0.77, 0.0160068830649, -0.227750707563, 0.00573236273826, -0.3325, 1.5225, 0.4375
22.5574841499, 0.295175903701, 0.414410090352, -0.0271855359843, -4.36625, 3.91125, 0.67375, 0.0211880752826, -0.254265573126, -0.032236786182, -0.175, 1.4525, 0.13125
22.6076591015, 0.261150733798, 0.454607455867, -0.0141565057325, -4.47125, 3.9725, 0.83125, 0.000432606880985, -0.211597102809, -0.0295301171267, -0.245, 1.96, 0.49875
22.6578741074, 0.279732094376, 0.418357039252, -0.0359967696434, -4.3225, 3.745, 0.56, 0.0099729115736, -0.191918653275, -0.0328868948726, -0.1925, 1.7325, 0.32375
22.7081699371, 0.266870496445, 0.416819201794, -0.0399498834111, -4.43625, 3.6925, 0.7525, 0.00711305837461, -0.217454109153, -0.00988088484682, -0.14875, 1.60125, 0.53375
22.7583789825, 0.270406091908, 0.369301198108, -0.0178092150067, -4.34875, 3.535, 0.8925, 0.0201844195551, -0.213741545572, -0.0140639150533, -0.39375, 1.645, 0.37625
22.8085179329, 0.277778934446, 0.384346470467, -0.00868046415543, -4.24375, 3.8675, 0.91, 0.00260937983963, -0.189280651914, -0.0251717711932, -0.245, 2.0125, 0.39375
22.8587591648, 0.289088436901, 0.354095641079, -0.0272736759659, -4.34, 3.4825, 0.595, -0.0580014023299, -0.17524232805, -0.0157941346665, -0.55125, 1.9075, 0.5775
22.9089729786, 0.246099220501, 0.360640722346, -0.0382395097791, -4.61125, 3.82375, 0.67375, -0.0503315222985, -0.188429157148, 0.0198103258281, -0.3675, 1.61875, 0.9975
22.9592199326, 0.267452868606, 0.3599189851, -0.0131540029211, -4.17375, 3.70125, 0.8575, -0.0658835330618, -0.19835261729, 0.0257163639208, -0.4375, 1.7325, 0.2975
23.0094239712, 0.272773141214, 0.340193440138, 0.0107724818705, -4.29625, 3.6225, 0.805, -0.040371345602, -0.187549058005, 0.0211439792983, -0.175, 1.785, 0.42
23.0596160889, 0.294308744383, 0.324456686512, 0.0160457103151, -4.0425, 3.6225, 0.83125, -0.0399657899377, -0.189589736984, 0.00439662323158, -0.30625, 1.67125, 0.42
23.1097841263, 0.281326074655, 0.350863924467, 0.0361715728197, -4.375, 3.92, 0.98, -0.0346635608645, -0.217753418261, 0.0244668883358, -0.3675, 1.7325, 0.46375
23.1600251198, 0.252936620471, 0.339837278818, 0.00888147398397, -4.4625, 3.66625, 0.65625, -0.0689424843003, -0.228667768792, -0.00113682044798, -0.51625, 1.70625, 0.385
23.2102169991, 0.231364546323, 0.361796376259, 0.00471634453432, -4.48875, 3.955, 0.735, -0.0564525710549, -0.265202553449, 0.00288925789342, -0.4025, 1.5925, 0.56
23.2604329586, 0.228830282522, 0.37030506477, 0.0093027390728, -4.40125, 3.70125, 0.88375, -0.0540415825545, -0.249164068294, 0.0136727988937, -0.25375, 1.84625, 0.5425
23.3106360435, 0.218148525958, 0.373384892217, -0.000725303215931, -4.305, 3.7275, 0.65625, -0.0617510636822, -0.202698105786, -0.0303620296065, -0.42, 1.86375, 0.37625
23.3608269691, 0.236412806026, 0.356679262696, 0.0136450043951, -4.38375, 3.605, 0.8925, -0.0290208615826, -0.184360465687, -0.0261232439813, -0.1575, 1.925, 0.51625
23.4110491276, 0.189017435593, 0.369532932505, 0.00870520820402, -4.52375, 3.8675, 0.84, 0.0141165419063, -0.179868779486, -0.0424683448624, 0.14875, 1.86375, 0.28
23.4612710476, 0.23049162283, 0.350234175329, -0.00925378135474, -4.27, 3.66625, 0.595, -0.0230431010559, -0.186168711383, -0.0188668593385, -0.27125, 1.54875, 0.56875
23.5114791393, 0.226898214493, 0.354902182017, -0.00341306289734, -4.445, 3.80625, 0.74375, -0.0183174118553, -0.172546656221, -0.0461246560642, -0.175, 1.925, 0.34125
23.5616941452, 0.199467548365, 0.40910869069, 0.0107073771478, -4.5675, 4.06, 0.805, -0.0013206432425, -0.220125262385, -0.0791956242708, -0.28875, 1.58375, 0.25375
23.6118609905, 0.226881214176, 0.406090539459, -0.00203202451025, -4.29625, 3.84125, 0.6825, 0.0217652789736, -0.206613962532, -0.0764409556593, -0.28875, 1.89875, 0.30625
23.662058115, 0.237010155134, 0.377370003266, 0.00709415413203, -4.4975, 3.75375, 0.91, 0.00615588837174, -0.207676578686, -0.0454099566757, -0.455, 1.6975, 0.5425
23.7122011185, 0.191753225659, 0.388782202645, 0.0119287648469, -4.62875, 3.815, 0.875, 0.0172337695811, -0.203530528735, -0.0108370649073, -0.16625, 1.75, 0.58625
23.7623980045, 0.203132612784, 0.397151084143, 0.012957299526, -4.31375, 3.885, 0.74375, 0.0080943533607, -0.214172228276, -0.0305205225749, -0.4025, 1.7675, 0.2275
23.8125619888, 0.256849924719, 0.40105814034, 0.00498387135447, -4.12125, 3.71875, 0.63, -0.0215902164001, -0.206939054413, 0.0170547890429, -0.4375, 1.8025, 0.70875
23.8631260395, 0.244310939023, 0.383032093675, 0.0164319357971, -4.36625, 3.605, 0.86625, -0.00690619476005, -0.164995148972, 0.0348993101386, -0.39375, 1.72375, 0.5775
23.9135160446, 0.243429360608, 0.393805995877, 0.00347986799567, -4.38375, 3.78, 0.69125, -0.0165218659801, -0.1639227136, 0.031854597091, -0.18375, 1.72375, 0.42
23.9636881351, 0.195681253883, 0.413214570994, 0.00724482376884, -4.4975, 3.9025, 0.74375, -0.000554190299474, -0.197528408215, 0.0272987512794, -0.1225, 1.67125, 0.525
24.0138559341, 0.202901815646, 0.397253802505, -0.0127116927472, -4.34, 3.64875, 0.76125, 0.0163486058574, -0.188135510654, 0.0393944885363, -0.18375, 1.8375, 0.74375
24.0640311241, 0.207287923606, 0.380658022026, -0.00591507401274, -4.375, 3.71875, 0.72625, -0.0160541163299, -0.161997037267, 0.029549082143, -0.44625, 1.855, 0.58625
24.1142420769, 0.234615718121, 0.381032997841, -0.0154962099503, -4.31375, 3.955, 0.6825, -0.0100313342272, -0.157605100186, 0.0302797565358, -0.30625, 1.77625, 0.35875
24.1644639969, 0.274426231678, 0.364624228252, -0.0102194300598, -4.27875, 3.70125, 0.88375, -0.0160028807241, -0.163235131151, 0.025009102794, -0.44625, 1.645, 0.48125
24.2147140503, 0.295347972893, 0.369663562395, -0.00453571451356, -4.2875, 3.8325, 0.76125, -0.0121546000478, -0.193912160609, 0.0122721359368, -0.44625, 1.63625, 0.41125
24.2648689747, 0.293169358043, 0.39207748554, -0.000378928755985, -4.33125, 3.82375, 0.8225, -0.0141352260388, -0.205593850093, -0.0124145698912, -0.245, 1.7675, 0.32375
24.3151390553, 0.302167180015, 0.381707763288, -0.0178369322923, -4.0425, 3.7275, 0.63, -0.00707703309139, -0.209193518575, -0.0131608016119, -0.16625, 1.72375, 0.4375
24.3653309345, 0.284027374231, 0.387157459437, 0.0194948763589, -4.5675, 3.675, 0.97125, -0.0290801571236, -0.173130825042, -0.027654974375, -0.3325, 1.82, 0.4375
24.4155049324, 0.266324673127, 0.363197542144, 0.0200483498507, -4.2875, 3.6925, 0.76125, -0.0308199272701, -0.178610968284, -0.0198180292438, -0.30625, 1.68, 0.37625
24.4657361507, 0.30138568671, 0.357913508223, 0.0236632470412, -4.3925, 3.8325, 0.67375, -0.0310937269799, -0.181067395879, 0.00817065668128, -0.39375, 1.75, 0.48125
24.5158879757, 0.280122406235, 0.38317244166, -0.000900269896665, -4.3925, 3.80625, 0.53375, -0.0149509188537, -0.195889590662, 0.00675073191184, -0.21, 1.61875, 0.84
24.5660960674, 0.29641164905, 0.374232177745, 0.0195407813837, -4.1125, 3.78, 0.86625, -0.00371274427153, -0.231083068436, -0.0240619071514, -0.23625, 1.505, 0.39375
24.6162691116, 0.288607842158, 0.369160257576, 0.0134232296287, -4.45375, 3.80625, 0.805, -0.0416163405739, -0.20307955689, -0.0137968803134, -0.4375, 1.7675, 0.58625
24.6666829586, 0.264084852148, 0.380644808637, 0.00419281599926, -4.2875, 3.885, 0.81375, -0.0553242358649, -0.168306941081, 0.0144195269462, -0.39375, 1.8725, 0.44625
24.7176239491, 0.300645357216, 0.382935065496, 0.00264581286346, -4.2875, 3.77125, 0.8225, -0.0887436179455, -0.163038260048, 0.0269435851438, -0.41125, 1.715, 0.67375
24.7678670883, 0.287047739345, 0.409302403052, -0.0245743915806, -4.19125, 3.84125, 0.5775, -0.0835223305359, -0.163348490639, -0.00088069603356, -0.27125, 1.68, 0.21
24.8181841373, 0.276821168869, 0.420859946472, -0.00602275718028, -4.4275, 3.885, 0.77875, -0.062318087734, -0.177337277417, -0.0172058637872, -0.07, 1.72375, 0.35875
24.8683731556, 0.266512632106, 0.414736900978, -0.00530008998443, -4.3925, 4.05125, 0.56, -0.0379908859581, -0.167223875237, -0.00906132470086, -0.1575, 1.75, 0.56
24.9185929298, 0.275762732006, 0.404174389792, 0.00486442711261, -4.2875, 3.745, 0.77875, -0.0636751176261, -0.150988838942, 0.0132678269923, -0.42875, 1.91625, 0.525
24.968845129, 0.229664781632, 0.390550630159, 0.0208804173651, -4.48, 3.52625, 0.84875, -0.0557801607494, -0.194530863589, 0.0148602458774, -0.2625, 1.46125, 0.37625
25.0191040039, 0.220715973122, 0.387033510428, 0.0365706380657, -4.445, 3.8325, 0.805, -0.012721930207, -0.219394999507, 0.0168942991607, -0.035, 1.61875, 0.525
25.0693261623, 0.263840694406, 0.386577429102, -0.0199245048501, -4.0425, 3.78, 0.63875, -0.0282952871209, -0.220852704641, 0.0192714440881, -0.39375, 1.61875, 0.41125
25.1195590496, 0.262485962469, 0.359490217573, -0.0286813489286, -4.45375, 3.605, 0.735, -0.0288716825679, -0.235290690759, 0.0321048697114, -0.25375, 1.68875, 0.665
25.1697990894, 0.27868101664, 0.350765868611, -0.0224569533689, -4.29625, 3.87625, 0.86625, -0.039692206592, -0.247989413563, -0.00293379998039, -0.41125, 1.74125, 0.1925
25.2199759483, 0.294194123478, 0.338095353575, -0.0199701322288, -4.375, 3.6575, 0.70875, -0.21012818734, -0.209671424986, -0.0143188779841, -2.17875, 1.88125, 0.42
25.2701661587, 0.261266266016, 0.335974012756, -0.0212777263948, -4.34875, 3.89375, 0.735, -0.117271948571, -0.188319218815, 0.0323307879496, -0.1925, 1.86375, 0.70875
25.320348978, 0.466550675473, 0.343701450332, -0.0307399583798, -4.235, 3.7625, 0.79625, -0.0846677783421, -0.18802606724, 0.0255329382392, -0.1225, 1.7325, 0.60375
25.37053895, 0.41984044242, 0.356502107292, 0.0116810703411, -4.34, 4.03375, 0.91, -0.0611088104114, -0.187126003018, 0.0205115119763, -0.28875, 1.84625, 0.4725
25.4207630157, 0.39908325836, 0.325416706907, 0.0164316669763, -4.2175, 3.42125, 0.79625, -0.0308631364332, -0.206659562445, 0.0367843247008, 0.07875, 1.6625, 0.7175
25.4710080624, 0.359141695344, 0.357540029335, 0.0349654352257, -4.3575, 3.99, 0.98875, -0.0153227264598, -0.203719821022, 0.0735662727069, -0.2625, 1.75, 0.83125
25.5211920738, 0.331892273229, 0.378319923761, 0.0366920025328, -4.36625, 3.82375, 0.77875, -0.0195014084325, -0.196738055028, 0.0775711808926, -0.13125, 1.79375, 0.5775
25.5713479519, 0.329507741315, 0.362164138247, 0.0347655220516, -4.20875, 3.75375, 0.76125, -0.0213986408303, -0.197470324573, 0.082477656523, -0.2975, 1.70625, 0.58625
25.62154603, 0.294938770465, 0.40035295198, 0.0461550728618, -4.55875, 3.92, 0.875, -0.0134853990725, -0.204450962904, 0.0877644017836, -0.21875, 1.6975, 0.7175
25.6717319489, 0.282266613669, 0.399481051993, 0.0252825481163, -4.36625, 3.9025, 0.74375, 0.0158868940761, -0.173077251957, 0.0419644989003, 0.00875, 1.8025, 0.18375
25.7218990326, 0.254048457072, 0.389629652115, 0.0172113639742, -4.34875, 3.68375, 0.79625, 0.0123408842017, -0.174980074085, 0.0145237441092, -0.34125, 1.88125, 0.37625
25.7721159458, 0.239416750228, 0.432575018213, 0.0238862048191, -4.3925, 3.9725, 0.93625, 0.0112186162033, -0.189996360009, 0.0132092327285, -0.16625, 1.63625, 0.42
25.8223280907, 0.241108560917, 0.414255938277, 0.0362522933131, -4.41875, 3.6925, 0.77875, 0.0236323712122, -0.197671096446, 0.00451878065905, -0.175, 1.715, 0.63
25.8724930286, 0.224385434342, 0.421284810004, 0.0386968575836, -4.61125, 3.84125, 0.79625, 0.0431147206819, -0.192626088122, 0.00493021233383, -0.175, 1.79375, 0.4025
25.9227571487, 0.224664701817, 0.364415696104, 0.0149519546427, -4.2525, 3.57, 0.665, 0.0143579237523, -0.193439631379, 0.0247759719904, -0.2975, 1.77625, 0.7
25.97321105, 0.251905567625, 0.35709529246, 0.0198429749345, -4.20875, 3.70125, 0.805, 0.0072524182394, -0.154023601417, 0.0171385373122, -0.14, 1.60125, 0.55125
26.0235631466, 0.244243509776, 0.345847186892, 0.024967809697, -4.36625, 3.7625, 0.91, -0.000171487103476, -0.184834455433, 0.00365574370061, -0.37625, 1.79375, 0.3675
26.0737509727, 0.436837242919, 0.342511221383, -0.0538310741454, -2.44125, 3.71, 0.0175, 0.0276835954462, -0.193603408901, -0.0522063476025, 0.0525, 1.75875, 0.035
26.1239049435, 0.404033100088, 0.327791930388, -0.083149853052, -4.31375, 3.675, 0.7175, 0.0367903410803, -0.220766885088, -0.0870066774022, -0.1225, 1.56625, 0.2625
26.1742999554, 0.372629790079, 0.351512737349, -0.0794098677468, -4.55, 3.955, 0.72625, 0.00888630697224, -0.19756519658, -0.088506009662, -0.48125, 1.95125, 0.385
26.2245261669, 0.306073366968, 0.362835285528, -0.0477655435874, -4.515, 3.80625, 0.72625, 0.000109617782764, -0.193712528307, -0.0642503810436, -0.18375, 1.89875, 0.65625
26.2746989727, 0.279806927244, 0.383746581277, -0.0479075903058, -4.1825, 3.675, 0.7875, 0.032023790404, -0.215757147928, -0.0855978086453, -0.16625, 1.60125, 0.46375
26.3249950409, 0.302936749961, 0.373523757751, -0.0375491333329, -4.3225, 3.59625, 0.81375, -0.00612315679546, -0.20665071084, -0.0959315525024, -0.28875, 1.75, 0.48125
26.3752350807, 0.283809640721, 0.399697569401, -0.0248878181997, -4.48, 3.91125, 0.88375, 0.0242289686961, -0.209943368202, -0.0750623517743, -0.00875, 1.82, 0.37625
26.4254291058, 0.270260808984, 0.365567531214, -0.0322641327418, -4.4275, 3.54375, 0.8575, -0.00303953535615, -0.219541628244, -0.0576930049372, -0.5075, 1.67125, 0.58625
26.4756290913, 0.27342012975, 0.417216230255, -0.0416500527688, -4.27875, 3.92, 0.665, 0.000611928725368, -0.20549834699, -0.0587714505992, -0.28, 1.72375, 0.28875
26.5257980824, 0.282932805097, 0.415282646507, -0.0209915427427, -4.445, 3.8675, 0.74375, -0.0341568377325, -0.185141161062, -0.0155348749853, -0.3675, 1.68, 0.72625
26.5759370327, 0.241130514916, 0.426508549303, -0.0262048346594, -4.54125, 3.9025, 0.72625, -0.034156334707, -0.194639156414, -0.0523719238643, -0.23625, 1.75875, 0.21
26.6261870861, 0.238665717082, 0.417296924936, -0.00935591607413, -4.52375, 3.71, 0.735, -0.0407066311126, -0.165757716695, -0.0323137583301, -0.3325, 1.79375, 0.49875
26.6764199734, 0.188848557753, 0.454069458278, -0.037532462818, -4.62875, 4.0075, 0.60375, -0.0306098840811, -0.160164875471, 0.00695377017736, -0.2625, 1.70625, 0.81375
26.7266039848, 0.19369233178, 0.454496261205, -0.0185312948826, -4.47125, 3.9375, 0.97125, -0.0145590061057, -0.161896049131, -0.0271349461563, -0.13125, 1.67125, 0.385
26.7767980099, -0.0238720401326, 0.406515274419, -0.0106213139694, -6.6675, 3.59625, 0.735, 0.0221304845489, -0.155643469817, -0.026703375748, -0.21, 1.75875, 0.4725
26.8270039558, 0.0360886474926, 0.403114872279, 0.00702923568477, -4.34, 3.8325, 0.95375, 0.0284231924846, -0.160246210552, -0.0470472343559, -0.105, 1.785, 0.3325
26.8772821426, 0.062781804469, 0.392048046546, -0.00466131909534, -4.6375, 3.8675, 0.79625, 0.0297577859126, -0.136849430547, -0.0348257598282, -0.32375, 1.9775, 0.60375
26.9274761677, 0.112359185458, 0.415380525932, 0.0107161483795, -4.40125, 3.885, 0.77875, 0.0147824259303, -0.156170734869, -0.0167612289148, -0.3325, 1.79375, 0.35
26.9776899815, 0.150635940221, 0.408020726005, 0.0263250801874, -4.3925, 3.68375, 0.76125, 0.0175712650035, -0.189110795244, -0.011694095421, -0.20125, 1.61875, 0.30625
27.0279159546, 0.148238600421, 0.430533359258, 0.0147377334566, -4.5325, 3.85, 0.7175, -0.0133340478124, -0.163303019733, 0.00558800443811, -0.27125, 1.89, 0.56
27.0780911446, 0.169898266341, 0.418632020999, 0.0411325640999, -4.4275, 3.75375, 0.8925, -0.000303078728078, -0.155512945983, -0.0228162164051, -0.18375, 1.6975, 0.2975
27.1283800602, 0.167230095736, 0.429379437009, 0.0415123769209, -4.40125, 3.9025, 0.6825, 0.0163770062303, -0.169677986247, -0.0209736352882, -0.1225, 1.6975, 0.42
27.1785981655, 0.189490739792, 0.41599510958, 0.0354430227753, -4.27875, 3.66625, 0.90125, 0.0278478375419, -0.153765251974, -0.00970803012507, -0.35, 1.9075, 0.53375
27.2287549973, 0.198062499231, 0.416656038759, 0.024391348448, -4.48, 3.71, 0.77, -0.0027332515911, -0.155399854099, 0.0102939955987, -0.455, 1.8025, 0.595
27.2790341377, 0.206843124377, 0.402141391395, 0.00695199224289, -4.5325, 3.78, 0.70875, -0.0184039337888, -0.16127388182, 0.00759563643494, -0.3325, 1.505, 0.4375
27.3292429447, 0.218771137671, 0.395788574327, -0.0121164976549, -4.585, 3.8675, 0.74375, -0.020406217732, -0.182743659847, 0.00317396896107, -0.25375, 1.7675, 0.46375
27.3794310093, 0.202879621514, 0.388388745205, -0.0078318631005, -4.48, 3.70125, 0.84875, -0.0364815363629, -0.177822364476, 0.0161784148585, -0.39375, 1.67125, 0.53375
27.4298090935, 0.215986744083, 0.375656645254, -0.0115976782003, -4.4275, 3.61375, 0.79625, -0.0501047900086, -0.175741253703, 0.0392945644318, -0.39375, 1.61875, 0.7175
27.4800961018, 0.240174262708, 0.365869382656, -0.0207991193422, -4.1475, 3.63125, 0.69125, -0.059399879907, -0.175037915499, 0.0588235971898, -0.28, 1.855, 0.69125
27.5302500725, 0.245143287514, 0.381858779956, -0.0316383080005, -4.3225, 3.85875, 0.8225, -0.0264397624522, -0.175146390399, 0.0352866523513, -0.18375, 1.75875, 0.5075
27.5804231167, 0.272366062886, 0.414993111765, -0.0296820294804, -4.15625, 3.94625, 0.7175, -0.0245687075863, -0.147431076223, 0.0113021884046, -0.3675, 1.81125, 0.4375
27.6306531429, 0.248039859844, 0.398078728476, -0.0251726994912, -4.57625, 3.7975, 0.69125, -0.0583078378304, -0.155974754567, 0.0632322953469, -0.42875, 1.75, 0.72625
27.6809301376, 0.238924786474, 0.428393770066, -0.0321448865879, -4.50625, 4.05125, 0.65625, -0.0586068486426, -0.167514551199, 0.049163159231, -0.32375, 1.79375, 0.5425
27.7311601639, 0.242167419339, 0.406771558378, -0.0147443723226, -4.4975, 3.82375, 0.86625, -0.0531616426605, -0.173669357824, 0.0394441930794, -0.1575, 1.84625, 0.60375
27.7813470364, 0.239680609665, 0.424234962286, -0.0236104415813, -4.4275, 3.955, 0.58625, -0.046825930555, -0.176072179838, 0.0336572963943, -0.1925, 1.74125, 0.44625
27.8315069675, 0.244599664446, 0.398314787507, -0.0176665119127, -4.34875, 3.75375, 0.77875, -0.0743321033746, -0.155425369102, 0.0178329190715, -0.46375, 1.995, 0.455
27.8817100525, 0.258538228201, 0.43742247788, -0.0205523746493, -4.3925, 3.91125, 0.65625, -0.0200490037334, -0.147382048972, 0.0519396644479, -0.0525, 1.95125, 0.79625
27.9320089817, 0.254724368359, 0.441432236375, -0.0271359311194, -4.4275, 3.8675, 0.81375, -0.0345292237217, -0.125655263701, 0.0683307653825, -0.2625, 1.95125, 0.37625
27.9835050106, 0.0318892383704, 0.483635111464, -0.0230601042067, -4.5675, 4.095, 0.7, -0.0544836712145, -0.151005763598, 0.0540804199598, -0.42, 1.61875, 0.5425
28.0339281559, 0.061619754772, 0.513489996257, -0.0457290659667, -4.4275, 3.96375, 0.58625, -0.0663520963154, -0.163331951663, 0.0472638761507, -0.3675, 1.72375, 0.58625
28.0844261646, 0.104199501365, 0.519689396968, -0.010033043433, -4.45375, 4.1475, 0.91, -0.0680101980155, -0.152211380847, 0.0392037396821, -0.2975, 1.8725, 0.44625
28.1346170902, 0.154163936495, 0.46674607039, 0.00243391133734, -4.20875, 3.70125, 0.74375, -0.0355779343533, -0.183207096637, 0.0326037762282, -0.21, 1.785, 0.63
28.1848299503, 0.141360288561, 0.468614317016, 0.0232914681832, -4.375, 4.0075, 0.8925, -0.0484206268262, -0.216785248276, 0.0198915587449, -0.20125, 1.51375, 0.3325
28.2350270748, 0.190839333735, 0.495240096783, 0.0155110892284, -4.29625, 4.235, 0.7875, -0.0609232077292, -0.235758551104, 0.00880716258335, -0.56875, 1.6275, 0.41125
28.2852680683, 0.211199374293, 0.454933780555, 0.00688933404753, -4.4275, 3.80625, 0.83125, 0.00226098156542, -0.221695483755, 0.0476759215233, -0.14, 1.75875, 0.53375
28.3354949951, 0.185371493177, 0.460621362249, -0.0020621394215, -4.43625, 3.92875, 0.67375, 0.017578895068, -0.236585841841, 0.0198499964338, -0.13125, 1.54875, 0.525
28.3857221603, 0.187342068526, 0.44775672308, 0.0120772003617, -4.45375, 3.8325, 0.875, 0.0202977645046, -0.208141078702, 0.0319961474003, -0.11375, 1.9775, 0.665
28.4359531403, 0.203847075506, 0.437920445695, 0.004065032293, -4.3575, 3.815, 0.70875, 0.0077761892487, -0.193319273749, 0.0188743793942, -0.28875, 1.86375, 0.4375
28.4862260818, 0.19674113116, 0.410615561013, 0.0232126761573, -4.43625, 3.77125, 0.91, -0.00385378670855, -0.204151111737, 0.0344082473093, -0.35875, 1.54875, 0.455
28.536427021, 0.179889284616, 0.402272493978, 0.0637087909187, -4.445, 3.78, 1.085, 0.0183845894895, -0.174197410456, 0.0157728622885, -0.18375, 1.88125, 0.3675
28.5866770744, 0.194485320539, 0.399590720122, 0.0139491206441, -4.29625, 3.82375, 0.58625, 0.0253015174865, -0.171599902469, 0.0328585184537, -0.1925, 1.8375, 0.63
28.6368610859, 0.181421048673, 0.395617884969, 0.0400331589496, -4.41875, 3.745, 0.93625, 0.0257088062476, -0.1941300789, -0.00120314004727, -0.41125, 1.68875, 0.27125
28.6870670319, 0.187851049425, 0.421850486825, 0.0312593587492, -4.375, 3.8325, 0.77, 0.00349663306058, -0.201045363909, -5.45434382873e-05, -0.3675, 1.68875, 0.3675
28.7372839451, 0.177746850034, 0.429186394328, 0.0405150805868, -4.5675, 3.9375, 0.83125, 0.0135922727791, -0.232721744766, 0.029925819815, -0.1575, 1.5225, 0.51625
28.7874820232, 0.217212453675, 0.436994381465, 0.0331672437478, -4.1475, 3.85875, 0.6125, 0.0173127668559, -0.204352901935, 0.0466914226451, -0.27125, 1.925, 0.455
28.8376340866, 0.231279587477, 0.425440448987, 0.00942296743571, -4.19125, 3.75375, 0.7175, -6.66588466855e-05, -0.200663350567, 0.0532650523426, -0.28, 1.68875, 0.56
28.8878080845, 0.20423656927, 0.460618587311, 0.0118660932606, -4.48875, 3.91125, 0.7175, 0.0326079057008, -0.208518582563, 0.0447269731577, -0.21875, 1.63625, 0.53375
28.9379651546, 0.204669121109, 0.436963555722, 0.00888153554111, -4.4625, 3.78, 0.735, 0.0152099036176, -0.210862551876, 0.0798488482578, -0.30625, 1.5575, 0.7
28.9881350994, 0.195836289289, 0.419345182122, -0.00310611059053, -4.515, 3.6925, 0.7875, 0.00431701973725, -0.191681300318, 0.0673265603799, -0.1925, 1.785, 0.63
29.0383739471, 0.201189894324, 0.460757097518, 0.00760405042167, -4.445, 4.1475, 0.79625, -0.00376821401283, -0.156274353257, 0.0444295139077, -0.2275, 2.26625, 0.3675
29.0885500908, 0.228746182962, 0.427266924091, 0.0108026027574, -4.34875, 3.71875, 0.90125, 0.000500721984646, -0.157670253525, 0.0178108656387, -0.175, 1.93375, 0.37625
29.1386880875, 0.220321908199, 0.421323708514, 0.00119510823349, -4.33125, 3.6575, 0.6825, 0.00416558480756, -0.151650405355, -0.00617819883263, -0.14875, 1.86375, 0.34125
29.188863039, 0.228198245641, 0.408634703896, 0.00785053766913, -4.3575, 3.73625, 0.7875, 0.00223412369413, -0.142749328338, 0.0127156589456, -0.245, 1.79375, 0.70875
29.2390470505, 0.208412771073, 0.42314094914, 0.0392360419608, -4.445, 3.7275, 0.88375, -0.00495857382698, -0.150523010358, -0.00064478462868, -0.4025, 2.05625, 0.55125
29.2892720699, 0.255476844569, 0.395756668804, 0.0397136939882, -4.13, 3.64, 0.735, -0.0258064447999, -0.17954863839, -0.00450227554923, -0.42, 1.4875, 0.5075
29.339441061, 0.253348744101, 0.383375401731, 0.0226880921305, -4.375, 3.75375, 0.805, -0.0464557202879, -0.194134397096, -0.0217143431949, -0.4025, 1.67125, 0.4375
29.3896350861, 0.241999982722, 0.408434075402, -0.00737764537431, -4.3925, 3.71875, 0.595, -0.0397316334332, -0.207523861648, -0.00485611798785, -0.18375, 1.51375, 0.525
29.4399859905, 0.220687987404, 0.445587190968, 0.00457094652213, -4.515, 3.955, 0.7875, -0.0120928607728, -0.206773645141, 0.00619788998686, -0.0175, 1.68875, 0.51625
29.4901909828, 0.201809042818, 0.460815562216, 0.00706022001463, -4.45375, 3.955, 0.735, -0.00714294550337, -0.189776737308, -0.0122124881996, -0.27125, 1.68, 0.23625
29.5404040813, 0.202265324682, 0.439923105395, 0.0182887782119, -4.34875, 3.745, 0.9625, -0.00622578585773, -0.188594157219, -0.0188596154417, -0.3325, 1.715, 0.4025
29.590667963, 0.231072412993, 0.41635021537, -0.0023660896484, -4.26125, 3.71, 0.74375, -0.0137078865448, -0.168561267348, -0.0498812885077, -0.3675, 1.96875, 0.35875
29.6408491135, 0.236031154524, 0.439868674449, -0.0214590326152, -4.24375, 3.78875, 0.83125, -0.0390183881013, -0.170622126552, -0.0441213436913, -0.07, 1.61, 0.3325
29.6913881302, 0.267812961648, 0.417438013674, -0.00448688477648, -4.305, 3.7625, 0.8925, -0.0116079049258, -0.206551030256, -0.0770964595509, -0.28875, 1.785, 0.2625
29.7415339947, 0.252805649041, 0.439148561968, -0.00612293900206, -4.375, 3.91125, 0.8925, 0.00433183730908, -0.199536951057, -0.0342765690126, -0.39375, 1.91625, 0.65625
29.7920730114, 0.259147575724, 0.429372835194, -0.0271270805917, -4.36625, 3.73625, 0.63875, -0.00401871177964, -0.220474930356, -0.0274565209002, -0.3325, 1.75875, 0.46375
29.8422329426, 0.272772036336, 0.427491996507, -0.0257654352792, -4.305, 3.78875, 0.90125, 0.0232548434585, -0.239272193588, -0.0307697819292, -0.07875, 1.7325, 0.60375
29.8924109936, 0.259684564489, 0.384431665454, -0.0324762523186, -4.48875, 3.71875, 0.69125, 0.0412355308812, -0.218805679126, -0.0140581710264, -0.32375, 1.6975, 0.56875
29.9425940514, 0.265069497236, 0.395027149018, -0.023885764378, -4.2525, 3.78875, 0.65625, 0.0340982800138, -0.193820100092, -0.0424046185314, -0.21875, 1.7325, 0.4025
29.9927840233, 0.243700663485, 0.411234791634, -0.0178934722316, -4.54125, 3.8675, 0.67375, 0.0125741461301, -0.182503602967, -0.0625887169094, -0.27125, 1.715, 0.525
30.04302001, 0.257722537423, 0.424700181223, -0.00918621250759, -4.3225, 3.87625, 0.7875, -0.00959244163465, -0.182352918403, -0.0428643606966, -0.53375, 1.82875, 0.5075
30.0932610035, 0.241888479781, 0.412566432112, -0.00781624891803, -4.305, 3.64875, 0.74375, 0.0166073600483, -0.207866527516, -0.0353263689478, -0.06125, 1.54, 0.56
30.1434459686, 0.262370451761, 0.43340092901, 0.00950120453875, -4.33125, 3.955, 0.91875, 0.00484576547524, -0.205273448559, -0.000387422962955, -0.13125, 1.785, 0.4725
30.1936199665, 0.251743059333, 0.429610527248, 0.0140143781088, -4.375, 3.7975, 0.84, 0.0361540630315, -0.200933094, 0.00985806866001, -0.175, 1.715, 0.6825
30.2437610626, 0.22214937806, 0.415172027071, 0.0131591462681, -4.515, 3.71875, 0.7525, 0.00583229105547, -0.18459330614, -0.0012449643854, -0.35, 1.68, 0.2975
30.2940349579, 0.212823146606, 0.417319157735, 0.0210560176294, -4.36625, 3.77125, 0.72625, 0.0111132401794, -0.174911020176, 0.010072920963, -0.2625, 1.715, 0.49875
30.3442101479, 0.184858073876, 0.425656915989, 0.0134515868519, -4.50625, 3.6925, 0.7525, 0.0168530520908, -0.191057633708, 0.0287711593821, -0.105, 1.74125, 0.63
30.3944261074, 0.143035039839, 0.447057101951, 0.02644078535, -4.5675, 3.7625, 0.86625, 0.00437347219356, -0.178081683304, 0.0167871390995, -0.11375, 2.00375, 0.49
30.4445960522, 0.116508794043, 0.419344627322, 0.0483958325202, -4.655, 3.73625, 0.74375, -0.0124377387709, -0.173489047128, -0.0168741755965, -0.30625, 1.6975, 0.49
30.4947769642, 0.109552410857, 0.444598483318, 0.0368648119072, -4.40125, 3.75375, 0.69125, -0.010640611564, -0.208072265357, -0.0146120240098, -0.27125, 1.8025, 0.51625
30.5449910164, 0.125524952794, 0.444637271487, 0.0394554976448, -4.47125, 3.87625, 0.8225, -0.0278713953668, -0.213651034939, 0.00632176055203, -0.245, 1.79375, 0.67375
30.5952160358, 0.135821440587, 0.444303070914, 0.0304260577831, -4.3925, 3.92, 0.84875, -0.0362154972224, -0.20235035447, 0.00369781344243, -0.2625, 1.8375, 0.5775
30.6454081535, 0.162815366876, 0.437922987441, 0.0317026068043, -4.36625, 3.78, 0.6475, -0.0188370527502, -0.203416287121, -0.0142847711116, -0.105, 1.8025, 0.4375
30.6956059933, 0.122292947169, 0.416480119827, 0.00289911151148, -4.655, 4.095, 0.93625, -0.0431730127276, -0.210404692568, -0.0152006646004, -0.23625, 1.56625, 0.46375
30.746119976, 0.115274058486, 0.424844007354, 0.00191270229187, -4.47125, 3.64875, 0.63875, -0.0324778762784, -0.229996270882, -0.0358445344937, -0.25375, 1.82875, 0.27125
30.7963171005, 0.136021987374, 0.402648645957, 0.00650678885641, -4.43625, 3.64, 0.83125, -0.0529095797855, -0.270784479414, -0.0095640729399, -0.42875, 1.4, 0.56875
30.8464951515, 0.157526278796, 0.409274612902, 0.0467176990763, -4.515, 3.8325, 0.91875, -0.0291633336637, -0.274826885493, -0.0478442091732, -0.07875, 1.8025, 0.385
30.8967440128, 0.159308785824, 0.398699936451, 0.0193488362518, -4.34875, 3.7975, 0.69125, -0.00892480026756, -0.277084777249, -0.0257588094303, -0.1575, 1.72375, 0.63
30.9469399452, 0.197415116518, 0.377621948525, 0.036817557364, -4.22625, 3.7275, 0.95375, 0.00860591178328, -0.290376169572, -0.0397196356385, -0.1225, 1.44375, 0.28
30.9971239567, 0.176854369941, 0.360623900475, 0.0444629993183, -4.4275, 3.50875, 0.8225, 0.02553395969, -0.284217977618, -0.0376363643805, -0.14875, 1.575, 0.3675
31.0473430157, 0.195527039653, 0.384230359385, 0.0435975294479, -4.41875, 4.0075, 0.8575, 0.00283000734891, -0.319779061871, 0.000709544851805, -0.18375, 1.5225, 0.56
31.097520113, 0.199960461907, 0.416471431991, 0.0339180989675, -4.3575, 3.745, 0.77, 0.00751582535735, -0.299588936104, 0.010570258197, -0.09625, 1.65375, 0.4375
31.1477270126, 0.204180474144, 0.434454359913, 0.0272686601637, -4.40125, 3.87625, 0.70875, -0.0105396814605, -0.307729538244, -0.0274430908605, -0.21875, 1.4525, 0.21875
31.1980071068, 0.186371315651, 0.395474728377, 0.0293468532593, -4.48875, 3.70125, 1.015, -0.0178231777847, -0.28672733338, -0.0369030132373, -0.09625, 1.715, 0.42
31.2481939793, 0.189148265678, 0.422347029985, 0.03389095114, -4.41, 4.05125, 0.79625, 0.00148572599436, -0.245074140038, -0.0404339407222, -0.11375, 1.95125, 0.4025
31.2983641624, 0.205047595199, 0.407276094288, 0.0205966704234, -4.38375, 3.8325, 0.7525, -0.0188365619446, -0.201972553431, -0.047843991985, -0.4025, 2.02125, 0.49875
31.3485300541, 0.2056059469, 0.442161772736, 0.0151467227387, -4.3925, 3.89375, 0.65625, 0.00127589634241, -0.186932991451, -0.047199020157, -0.2275, 1.89, 0.42875
31.3987090588, 0.25484673529, 0.401207182324, 0.0138774608765, -4.1475, 3.57875, 0.84, 0.000984128433618, -0.162809150768, 0.0184499143055, -0.14, 1.9775, 0.875
31.4489350319, 0.244788355585, 0.401352817683, -0.00935175669003, -4.55, 4.0075, 0.7175, 0.00114464403123, -0.165612912122, 0.0254894305875, -0.3325, 1.82875, 0.5425
31.499158144, 0.235328568024, 0.435858282323, 0.00167007708107, -4.445, 4.06, 0.7875, 0.0024121616653, -0.169983958819, 0.00774143877585, -0.21875, 1.93375, 0.56
31.5494191647, 0.246510776089, 0.450214437814, 0.0357104861921, -4.22625, 3.78875, 0.9975, 0.021683715854, -0.168758305979, -0.00349224113241, -0.1925, 1.70625, 0.385
31.5996191502, 0.240836228632, 0.449711194629, 0.0435079938156, -4.4275, 4.0075, 0.9275, 0.0207988098417, -0.184344227843, -0.0106587153173, -0.28, 1.77625, 0.595
31.6497809887, 0.237114845192, 0.441953567649, 0.0214739749906, -4.41875, 3.745, 0.69125, 0.0157945359718, -0.175531324553, -0.00815105940697, -0.23625, 1.95125, 0.63875
31.6999781132, 0.209855472145, 0.434051650816, 0.00424502776817, -4.38375, 3.89375, 0.77, 0.0168269667234, -0.221662335599, 0.00311337769232, -0.315, 1.67125, 0.62125
31.7502679825, 0.240195432438, 0.419206837161, 0.0186334724922, -4.27875, 3.68375, 0.83125, -0.019360156954, -0.209783991835, -0.00714566406922, -0.35875, 1.70625, 0.41125
31.8004670143, 0.227789970247, 0.450798034291, 0.0240668014468, -4.52375, 4.22625, 0.69125, -0.0429958044195, -0.192085030048, -0.0433336891065, -0.41125, 1.72375, 0.2975
31.8506960869, 0.2079973759, 0.433033907775, 0.0177141091719, -4.54125, 3.78875, 0.70875, -0.0459416015798, -0.206826374339, -0.0213177881762, -0.37625, 1.81125, 0.55125
31.900894165, 0.207102874479, 0.399132465298, 0.0131809284293, -4.445, 3.49125, 0.84875, -0.0189276972796, -0.208966863214, -0.000159908422751, -0.1925, 1.7675, 0.6475
31.9511051178, 0.201897995495, 0.381948817202, -0.00219435317507, -4.48, 3.56125, 0.69125, 0.00437695868316, -0.253334343283, -0.0269448232402, -0.13125, 1.46125, 0.41125
32.0012860298, 0.193142388716, 0.39331818774, -0.00933418346462, -4.40125, 3.675, 0.8225, 0.000304802880024, -0.246259486254, -0.0268885261421, -0.4025, 1.89875, 0.5425
32.0515091419, 0.18264533486, 0.39890023207, -0.0474906886063, -4.34875, 3.6925, 0.595, -0.0120931096672, -0.221220183865, -0.0523597061751, -0.34125, 1.84625, 0.3675
32.1017460823, 0.201617721237, 0.378921687977, -0.0130349577711, -4.27875, 3.605, 0.83125, -0.0342104188304, -0.221675848931, -0.0352788620018, -0.44625, 1.74125, 0.4375
32.1522080898, 0.219730568781, 0.354588910535, -0.0169482342152, -4.305, 3.61375, 0.7175, -0.0232666453274, -0.250375443871, -0.0444002903993, -0.41125, 1.5575, 0.3675
32.2028501034, 0.209169260713, 0.334367017533, -0.0351955697143, -4.40125, 3.605, 0.70875, -0.0198984827152, -0.235229109535, -0.0118567352235, -0.23625, 1.72375, 0.7175
32.2530241013, 0.207527101178, 0.344849784202, -0.0388634114686, -4.4975, 3.77125, 0.63875, -0.0367702709993, -0.236698078724, -0.013146455531, -0.30625, 1.7675, 0.55125
32.3031790257, 0.264166006758, 0.371024242683, -0.0206396769606, -4.26125, 3.9375, 0.735, -0.0197252775585, -0.209316649389, -0.000764516082101, -0.28, 1.9075, 0.46375
32.3533380032, 0.258549465474, 0.411904636573, 0.00433936166193, -4.40125, 3.96375, 0.86625, -0.0383799748224, -0.206258986005, 0.0016132419735, -0.56, 1.68875, 0.49875
32.4035420418, 0.251573810331, 0.409923480062, 0.00836139465154, -4.3575, 3.71875, 0.91875, -0.0296925016455, -0.186942800798, -0.0190459466013, -0.25375, 1.855, 0.4025
32.4537091255, 0.236887286368, 0.39642551885, -0.0178447703322, -4.68125, 3.8325, 0.55125, -0.0436534263329, -0.208348668646, -0.0310447167471, -0.28, 1.5575, 0.525
32.5039410591, 0.0336658317622, 0.393336703242, -0.0123783375722, -4.24375, 3.61375, 0.84, -0.0214880977967, -0.219799929443, -0.00788859850861, -0.0175, 1.6275, 0.56
32.5541360378, 0.0811193237274, 0.405827729626, -0.00078145343349, -4.41875, 3.99, 0.7875, -0.00813285921529, -0.244587942849, -0.025594764792, -0.2275, 1.61875, 0.4025
32.6043119431, 0.0894234869973, 0.418732164897, -0.022907929553, -4.55875, 3.80625, 0.63, -0.0313286043679, -0.219224610337, -0.00696058353335, -0.39375, 1.68875, 0.35
32.6545350552, 0.103708024468, 0.435323053567, -0.0334604229379, -4.3925, 3.85875, 0.65625, -0.015141169538, -0.238871934373, -0.030268072662, -0.21, 1.67125, 0.41125
32.7047541142, 0.142903149837, 0.45839925605, -0.0273321483218, -4.3225, 3.9375, 0.735, 0.0129998374068, -0.235646390158, -0.0363986749706, -0.3325, 1.49625, 0.30625
32.7549631596, 0.165226551368, 0.435340897401, -0.00545654014062, -4.4625, 3.71875, 0.8225, -0.00951013170052, -0.221111076028, -0.0648754267262, -0.16625, 1.785, -0.035
32.8051609993, 0.176278905947, 0.391606014205, 0.0126214322375, -4.5325, 3.59625, 0.98, -0.0120501360097, -0.208917474424, -0.0768436860834, -0.35, 1.65375, 0.28875
32.8553330898, 0.186573413817, 0.372575871506, -0.00485663988764, -4.48, 3.71875, 0.63875, -0.0389006101678, -0.211273154284, -0.0593108857275, -0.13125, 1.70625, 0.41125
32.9055430889, 0.181690768673, 0.381121560328, 0.0220712595219, -4.36625, 3.5875, 0.77875, -0.0258020448124, -0.237629379473, -0.0189921356954, -0.23625, 1.60125, 0.37625
32.9557271004, 0.168732022625, 0.402583463866, 0.0145227202127, -4.41875, 3.94625, 0.86625, -0.012152156298, -0.238292297373, 0.00662387008674, -0.04375, 1.72375, 0.5075
33.0059020519, 0.196229394494, 0.354084595158, -0.00302743696491, -4.4625, 3.57875, 0.69125, -0.000527421941247, -0.219368834785, 0.0230805512932, -0.13125, 1.75875, 0.44625
33.0560829639, 0.205039978586, 0.40152141987, -0.0114990015474, -4.3575, 3.99875, 0.76125, -0.00929924059517, -0.215119880558, -0.0268900281072, -0.28875, 1.74125, 0.37625
33.106274128, 0.190532382655, 0.400732350095, -0.0346316912534, -4.36625, 3.7625, 0.63875, -0.0246848848821, -0.214459603252, -0.0405484227669, -0.35, 1.575, 0.525
33.1564810276, 0.180088106955, 0.399013883219, -0.0333922529237, -4.6025, 3.71, 0.72625, -0.017232531079, -0.242454800771, -0.041863050197, -0.14, 1.6975, 0.525
33.2066550255, 0.15023172997, 0.407534870867, -0.0480637023814, -4.6375, 3.955, 0.58625, -0.0249247651566, -0.202304549762, -0.0255226635936, -0.1925, 1.855, 0.5775
33.2568981647, 0.152175201276, 0.420828245402, -0.0501615989289, -4.55, 3.8675, 0.70875, -0.0430290597769, -0.194629185307, -0.0172158575109, -0.28875, 1.81125, 0.385
33.3071801662, 0.16140072173, 0.448077540898, -0.0530260556192, -4.62, 3.94625, 0.6825, -0.0100079345773, -0.228794676089, -0.0472273601254, -0.3325, 1.61, 0.4375
33.3573241234, 0.151116126141, 0.429862277315, -0.0651329945464, -4.62, 3.82375, 0.74375, -0.000574284306876, -0.218045068869, 0.0193042544686, -0.245, 1.82875, 0.56875
33.4075880051, 0.155954062174, 0.426838444625, -0.0580377255826, -4.40125, 3.7625, 0.83125, 0.0300698297114, -0.208691505784, 0.00771894611955, 0.00875, 1.8375, 0.5075
33.4578840733, 0.149551761325, 0.434285226132, -0.0498690019497, -4.4975, 3.96375, 0.76125, 0.00104490585963, -0.191489857716, 0.00458511172115, -0.35875, 1.8375, 0.28875
33.5081501007, 0.155124426673, 0.403821033167, -0.0433988915793, -4.515, 3.70125, 0.74375, 0.0125688737463, -0.16145678475, -0.00971605950587, -0.2975, 1.96875, 0.42875
33.5583860874, 0.153575707045, 0.403155533178, -0.0448847919613, -4.515, 3.78875, 0.665, -0.0118445410389, -0.179910746083, 0.00233124262022, -0.49, 1.6625, 0.35
33.6085760593, 0.190071690436, 0.364275383687, -0.0414967633398, -4.375, 3.745, 0.88375, -0.00583317041739, -0.196259933894, -0.00727877412986, -0.07, 1.68, 0.46375
33.6587581635, 0.207720569253, 0.371525560787, -0.0259423783052, -4.50625, 3.9375, 0.86625, -0.00796486803809, -0.162345546455, -0.00637580704519, -0.2975, 1.95125, 0.46375
33.7089519501, 0.243167044985, 0.374467133813, -0.0180627437845, -4.13875, 3.7625, 0.8225, -0.0149311387998, -0.169183653365, -0.0239599633359, -0.18375, 1.93375, 0.44625
33.7591340542, 0.237865306438, 0.386955878389, -0.0101108224654, -4.45375, 3.8675, 0.86625, -0.0178717224278, -0.176726259226, -0.0426375703021, -0.1575, 1.6275, 0.39375
33.809294939, 0.228408398215, 0.368109261495, -0.017319766197, -4.4975, 3.49125, 0.84, -0.00424109516653, -0.180560769973, -0.0365039319447, -0.0525, 1.77625, 0.4725
33.8594839573, 0.236148302554, 0.392743501811, -0.0148465106196, -4.45375, 3.78, 0.805, -0.00413778708489, -0.172379223678, -0.0209481848752, -0.28, 1.645, 0.665
33.9097681046, 0.208573362562, 0.35318501282, -0.0377201062417, -4.41, 3.5525, 0.79625, 0.00711755321512, -0.140430704061, -0.037663226774, -0.2975, 1.855, 0.35875
33.9599580765, 0.202231923675, 0.344779860384, -0.0472957860558, -4.34875, 3.73625, 0.70875, 0.0233502181042, -0.14818637029, -0.044287213687, -0.02625, 1.68, 0.4725
34.0101659298, 0.194960822359, 0.35938826822, -0.0192006280346, -4.48, 3.77125, 0.84, -0.003879941002, -0.145255363941, -0.0379998787778, -0.30625, 1.75875, 0.2625
34.0603339672, 0.167843266111, 0.350941997258, -0.0181200087081, -4.48, 3.535, 0.7875, 0.0417422477884, -0.184381844792, -0.03397240181, -0.0525, 1.68, 0.35
34.1105821133, 0.19076554555, 0.396250517779, -0.0188197070535, -4.3225, 4.025, 0.70875, 0.0540212207086, -0.199186794282, -0.00997264546611, -0.23625, 1.715, 0.53375
34.1607689857, 0.151934332706, 0.408609127461, -0.011207816442, -4.655, 3.89375, 0.7525, 0.0228717198966, -0.209384673031, 0.000481691455203, -0.32375, 1.74125, 0.735
34.2109620571, -0.0348331905083, 0.386523393243, -0.020133331318, -4.41, 3.57875, 0.56875, 0.0414485931162, -0.208239085155, -0.0171523299213, -0.04375, 1.575, 0.56875
34.2611351013, 0.0284403541195, 0.402533053674, -0.0170479485309, -4.6375, 3.80625, 0.7525, 0.0582000243817, -0.232547543078, -0.00455104851262, -0.16625, 1.5575, 0.5425
34.3113191128, 0.0694491868368, 0.416251773476, -0.03947633831, -4.29625, 3.73625, 0.6825, 0.0257020197492, -0.180363509893, 0.0468461507048, -0.385, 1.9075, 0.6825
34.3615009785, 0.0918163413378, 0.416251436516, 0.00281916596891, -4.515, 4.0425, 0.90125, 0.0392786359968, -0.195931943014, 0.0573278820709, -0.175, 1.47875, 0.63875
34.4116611481, 0.116847862835, 0.39720229722, -0.0161355780087, -4.4625, 3.73625, 0.6825, 0.0310156256417, -0.202103136457, 0.0482137760297, -0.09625, 1.84625, 0.5075
34.4618799686, 0.152696768897, 0.395046360748, 0.00763768181298, -4.47125, 3.78, 0.7525, 0.0142701567698, -0.22176604053, 0.028860658584, -0.1925, 1.68, 0.35875
34.5121049881, 0.160121882806, 0.426987552206, 0.0291690222685, -4.4275, 3.99875, 0.90125, 0.0190813269835, -0.196742992829, 0.00933463345306, -0.16625, 1.91625, 0.44625
34.5623459816, 0.149702602566, 0.443598925558, 0.00404471723375, -4.55, 3.87625, 0.86625, 0.00790928737099, -0.177581891773, -0.00923455221272, -0.13125, 1.8375, 0.41125
34.6127860546, 0.162596608078, 0.432890129702, -0.00104127904066, -4.41, 3.80625, 0.69125, 0.0124415227705, -0.183003832336, -0.0030599872923, -0.23625, 1.75875, 0.4025
34.6629559994, 0.166119177289, 0.439081904553, 0.0169689075794, -4.34875, 3.87625, 0.84875, 0.0180401200997, -0.194586043773, -0.0293914807361, -0.28, 1.5925, 0.1575
34.7131180763, 0.189981533604, 0.466681342688, 0.0154648151393, -4.34, 4.08625, 0.8225, 0.0186349972808, -0.197564695456, -0.00853709939623, -0.20125, 1.75875, 0.5425
34.763422966, 0.159172542219, 0.461386887577, 0.0202840002628, -4.55, 3.7625, 0.79625, 0.00161684779741, -0.200064903319, 0.0195549494891, -0.455, 1.75, 0.63875
34.813642025, 0.165189283278, 0.451473541044, -0.00380621380841, -4.3575, 3.99875, 0.67375, -0.0101073179557, -0.21482856452, 0.0396910581775, -0.37625, 1.6625, 0.62125
34.8638291359, 0.160965819455, 0.446968568245, -0.0214880331848, -4.5675, 3.94625, 0.62125, 0.00808557245589, -0.215623637261, 0.0876697571238, 0.07875, 1.5925, 0.70875
34.9140069485, 0.143019813759, 0.418907040279, -0.0319603068797, -4.68125, 3.63125, 0.69125, -0.00281568631073, -0.180742646181, 0.0926700032703, -0.1225, 1.91625, 0.63
34.9643490314, 0.11770519423, 0.424968232363, -0.0247773137153, -4.62875, 3.815, 0.7, 0.0108417940883, -0.196676543407, 0.0676702026489, -0.3675, 1.5925, 0.175
35.014603138, 0.124253707326, 0.391899268214, -0.00776212410939, -4.55, 3.73625, 0.8575, -0.0184323321096, -0.234837200144, 0.0110670777311, -0.385, 1.54875, 0.39375
35.0648369789, 0.159395502934, 0.396875907254, -0.0238173205286, -4.24375, 3.84125, 0.70875, -0.0112576890088, -0.223693132116, -0.0119031670378, -0.23625, 1.77625, 0.39375
35.1150569916, 0.123588071639, 0.399160036388, -0.00767607666535, -4.62, 3.675, 0.84, 0.00864714471259, -0.181951043313, -0.0164831587706, -0.035, 1.91625, 0.53375
35.1652059555, 0.135843838028, 0.434169629474, 0.0106398779011, -4.41875, 3.91125, 0.91875, 0.0250266872172, -0.151805345083, -0.0126063586042, -0.06125, 2.00375, 0.58625
35.2154359818, 0.155658508802, 0.444152399874, 0.00972580109986, -4.375, 3.7275, 0.76125, 0.0370691166459, -0.173674829518, -0.0472661504694, -0.18375, 1.6275, 0.27125
35.2656199932, 0.162820052917, 0.414838349508, 0.0298843590018, -4.40125, 3.71, 0.875, 0.0192023860349, -0.166111450718, -0.0193202736922, -0.06125, 1.84625, 0.56
35.3157939911, 0.142246742863, 0.405569063102, 0.0219888307915, -4.6725, 3.71875, 0.74375, 0.00855143268826, -0.160412775082, -0.0258419216907, -0.28, 1.82875, 0.51625
35.3659610748, 0.124182361719, 0.407598441112, 0.0157684529411, -4.655, 3.80625, 0.76125, 0.00421166047749, -0.195084347816, -0.0343619565694, -0.245, 1.75875, 0.5075
35.4162290096, 0.145162712992, 0.421579737301, -0.00895755311773, -4.375, 3.64875, 0.88375, -0.00569105501324, -0.193855821731, -0.0631381848212, -0.175, 1.855, 0.44625
35.4665780067, 0.160313617771, 0.396527878492, 0.00170419377718, -4.45375, 3.82375, 0.72625, 0.0313339708954, -0.235502144042, -0.0512609867347, -0.2275, 1.58375, 0.58625
35.5167729855, 0.161216530395, 0.412000081579, 0.0196378969595, -4.38375, 3.87625, 0.8225, 0.0352655164252, -0.215044236674, -0.0520638992551, -0.245, 1.82875, 0.63875
35.5669600964, 0.148855600658, 0.383226809471, 0.0293927768835, -4.54125, 3.7275, 0.875, 0.040383811474, -0.192813498535, -0.00834533255697, -0.32375, 1.91625, 0.93625
35.6171569824, 0.176523036533, 0.390726215671, 0.0245656492756, -4.36625, 3.92875, 0.805, 0.0210708872939, -0.210478933814, -0.0301647193711, -0.35, 1.58375, 0.37625
35.6674170494, 0.178721159592, 0.358913234694, 0.0274806759133, -4.41875, 3.52625, 0.93625, 0.00980241870809, -0.226100436389, 0.0177865773094, -0.2275, 1.68875, 0.7175
35.7176711559, 0.208851639269, 0.356594720102, 0.0152293474897, -4.26125, 3.745, 0.735, 0.0128374591536, -0.202616353475, 0.0133146276206, -0.27125, 1.91625, 0.56
35.7678790092, 0.179269827808, 0.376766723283, 0.00871827146669, -4.26125, 3.84125, 0.8225, 0.0207208419144, -0.194269246315, 0.00986734837268, -0.1575, 1.785, 0.2625
35.8184001446, 0.194303954472, 0.379451691273, -0.00699638010079, -4.4625, 3.9025, 0.7175, -0.0276455062444, -0.178464780564, -0.0383337030363, -0.49875, 1.98625, 0.2975
35.8686311245, 0.187436203122, 0.399743369931, -0.00315956788164, -4.59375, 3.87625, 0.8225, -0.029657860058, -0.169281472256, -0.00151779945942, -0.14875, 1.86375, 0.70875
35.9188101292, 0.175442242076, 0.40809291668, -0.00109532498571, -4.55, 3.9025, 0.7875, -0.0175853299823, -0.179778693275, -0.0110997258059, -0.25375, 1.82875, 0.55125
35.9690361023, 0.173374894474, 0.38747473626, -0.0130917419146, -4.5675, 3.815, 0.83125, 0.0151642944429, -0.172031167397, 0.0275375498875, -0.00875, 1.715, 0.97125
36.0192890167, 0.156571164524, 0.35715453637, -0.0157093109508, -4.5675, 3.61375, 0.77, -0.00399442150123, -0.198632745592, 0.00353791540887, -0.34125, 1.47875, 0.44625
