TIME, IMU1_acc_x, IMU1_acc_y,IMU1_acc_z, IMU1_acc_raw_x, IMU1_acc_raw_y, IMU1_acc_raw_z,IMU2_acc_x, IMU2_acc_y,IMU2_acc_z, IMU2_acc_raw_x, IMU2_acc_raw_y, IMU2_acc_raw_z1.90734863281e-06, 0.0, 0.0, 0.0, 0.0, 0.0, 0.0, 0.0, 0.0, 0.0, 0.0, 0.0, 0.0
0.0101299285889, 0.0, 0.0, 0.0, 0.0, 0.0, 0.0, 0.0, 0.0, 0.0, 0.0, 0.0, 0.0
0.0202798843384, 0.0, 0.0, 0.0, 0.0, 0.0, 0.0, 0.0, 0.0, 0.0, 0.0, 0.0, 0.0
0.0338549613953, 0.0, 0.0, 0.0, 0.0, 0.0, 0.0, 0.0, 0.0, 0.0, 0.0, 0.0, 0.0
0.044597864151, 0.0, 0.0, 0.0, 0.0, 0.0, 0.0, 0.0, 0.0, 0.0, 0.0, 0.0, 0.0
0.0565760135651, 0.0, 0.0, 0.0, 0.0, 0.0, 0.0, 0.0, 0.0, 0.0, 0.0, 0.0, 0.0
0.0667209625244, -3.28245374781e-05, -0.0572893785603, -0.988411456832, 0.0, 0.0, 0.0, 0.0124001807443, 0.0182657794606, -0.994625646137, 0.0, 0.0, 0.0
0.0771999359131, -3.28245374781e-05, -0.0572893785603, -0.988411456832, 0.2356930261, -0.31764720015, -9.81834933345, 0.0124001807443, 0.0182657794606, -0.994625646137, 0.0370887503, 0.0550349198, -10.1353983279
0.088495016098, -3.28245374781e-05, -0.0572893785603, -0.988411456832, 0.2356930261, -0.31764720015, -9.81834933345, 0.0124001807443, 0.0182657794606, -0.994625646137, 0.0370887503, 0.0550349198, -10.1353983279
0.0986368656158, 0.00188614874768, -0.0569927370295, -0.986722164712, 0.2536391956, -0.3146561719, -9.80159957525, 0.0110583192683, 0.0248085322527, -0.996247463641, 0.02452643165, 0.12023933565, -10.1515498805
0.108832836151, 0.00188614874768, -0.0569927370295, -0.986722164712, 0.2536391956, -0.3146561719, -9.80159957525, 0.0110583192683, 0.0248085322527, -0.996247463641, 0.02452643165, 0.12023933565, -10.1515498805
0.119000911713, 0.000670799000413, -0.0533737103541, -0.987687474495, 0.24227328825, -0.27816562725, -9.81117086565, 0.011505606427, 0.0191061330302, -0.996067261696, 0.0287138712, 0.0634097989, -10.1497552636
0.129544973373, 0.000670799000413, -0.0533737103541, -0.987687474495, 0.24227328825, -0.27816562725, -9.81117086565, 0.011505606427, 0.0191061330302, -0.996067261696, 0.0287138712, 0.0634097989, -10.1497552636
0.139777898788, -0.000416619194509, -0.062925567645, -0.99251402341, 0.2321037922, -0.3744767369, -9.85902731765, 0.00952476329571, 0.024088229193, -0.997148473366, 0.01016949605, 0.11306086785, -10.1605229653
0.149951934814, -0.000416619194509, -0.062925567645, -0.99251402341, 0.2321037922, -0.3744767369, -9.85902731765, 0.00952476329571, 0.024088229193, -0.997148473366, 0.01016949605, 0.11306086785, -10.1605229653
0.160229921341, -0.00175990049412, -0.0598998240311, -0.987506478911, 0.21954147355, -0.34396824875, -9.8093762487, 0.00965255962676, 0.0168851985962, -0.99840988698, 0.01136590735, 0.04127618985, -10.1730852839
0.171016931534, -0.000736448075369, -0.0558654992126, -0.99251402341, 0.22911276395, -0.30329026455, -9.85902731765, 0.00971645779229, 0.0233079008784, -0.995706857807, 0.011964113, 0.1052841944, -10.1461660296
0.181180000305, -0.000736448075369, -0.0558654992126, -0.99251402341, 0.22911276395, -0.30329026455, -9.85902731765, 0.00971645779229, 0.0233079008784, -0.995706857807, 0.011964113, 0.1052841944, -10.1461660296
0.191777944565, 9.51070148657e-05, -0.0575266917849, -0.989256102892, 0.2368894374, -0.32004002275, -9.82672421255, 0.0118889954201, 0.0207868401695, -0.997028338736, 0.0323031051, 0.0801595571, -10.1593265539
0.202085018158, 9.51070148657e-05, -0.0575266917849, -0.989256102892, 0.2368894374, -0.32004002275, -9.82672421255, 0.0118889954201, 0.0207868401695, -0.997028338736, 0.0323031051, 0.0801595571, -10.1593265539
0.212256908417, 9.51070148657e-05, -0.0575266917849, -0.989256102892, 0.2368894374, -0.32004002275, -9.82672421255, 0.0118889954201, 0.0207868401695, -0.997028338736, 0.0323031051, 0.0801595571, -10.1593265539
0.222424983978, 0.000542867448069, -0.0520091593125, -0.986963492158, 0.24107687695, -0.2644068973, -9.80399239785, 0.00882188347493, 0.0194062593051, -0.995046117342, 0.0035892339, 0.06640082715, -10.1395857675
0.232569932938, 0.000862696328928, -0.0559248275187, -0.990764399428, 0.2440679052, -0.3038884702, -9.8416793538, 0.00990815228886, 0.0232478756234, -0.996307530956, 0.01375872995, 0.10468598875, -10.1521480861
0.242832899094, 0.000862696328928, -0.0559248275187, -0.990764399428, 0.2440679052, -0.3038884702, -9.8416793538, 0.00990815228886, 0.0232478756234, -0.996307530956, 0.01375872995, 0.10468598875, -10.1521480861
0.252970933914, 0.00156631986682, -0.0539669934156, -0.990040417091, 0.25064816735, -0.28414768375, -9.834500886, 0.0106110321096, 0.0207268149145, -0.994805848082, 0.0203389921, 0.07956135145, -10.1371929449
0.263098955154, 0.00156631986682, -0.0539669934156, -0.990040417091, 0.25064816735, -0.28414768375, -9.834500886, 0.0106110321096, 0.0207268149145, -0.994805848082, 0.0203389921, 0.07956135145, -10.1371929449
0.273268938065, 0.00156631986682, -0.0539669934156, -0.990040417091, 0.25064816735, -0.28414768375, -9.834500886, 0.0106110321096, 0.0207268149145, -0.994805848082, 0.0203389921, 0.07956135145, -10.1371929449
0.283497810364, 0.000287004343381, -0.0504072950464, -0.987747806357, 0.23868405435, -0.24825534475, -9.8117690713, 0.0111861155994, 0.024088229193, -0.993844771043, 0.02572284295, 0.11306086785, -10.1276216545
0.293942928314, 0.000287004343381, -0.0504072950464, -0.987747806357, 0.23868405435, -0.24825534475, -9.8117690713, 0.0111861155994, 0.024088229193, -0.993844771043, 0.02572284295, 0.11306086785, -10.1276216545
0.304121017456, -3.28245374781e-05, -0.0635188507065, -0.991367718043, 0.2356930261, -0.3804587934, -9.8476614103, 0.010291541282, 0.0215671684841, -0.996187396326, 0.01734796385, 0.08793623055, -10.1509516748
0.314383983612, -3.28245374781e-05, -0.0635188507065, -0.991367718043, 0.2356930261, -0.3804587934, -9.8476614103, 0.010291541282, 0.0215671684841, -0.996187396326, 0.01734796385, 0.08793623055, -10.1509516748
0.324615955353, -0.0011202427324, -0.0502293101279, -0.9895577622, 0.22552353005, -0.2464607278, -9.8297152408, 0.0114417082615, 0.0188060067554, -0.996127329011, 0.02811566555, 0.06041877065, -10.1503534692
0.334908008575, -0.0011202427324, -0.0502293101279, -0.9895577622, 0.22552353005, -0.2464607278, -9.8297152408, 0.0114417082615, 0.0188060067554, -0.996127329011, 0.02811566555, 0.06041877065, -10.1503534692
0.345319986343, -0.000224721865994, -0.052187144231, -0.988351124971, 0.23389840915, -0.26620151425, -9.8177511278, 0.00946086513019, 0.0215071432292, -0.994986050027, 0.0095712904, 0.0873380249, -10.1389875618
0.355473041534, -0.000224721865994, -0.052187144231, -0.988351124971, 0.23389840915, -0.26620151425, -9.8177511278, 0.00946086513019, 0.0215071432292, -0.994986050027, 0.0095712904, 0.0873380249, -10.1389875618
0.365644931793, -0.000224721865994, -0.052187144231, -0.988351124971, 0.23389840915, -0.26620151425, -9.8177511278, 0.00946086513019, 0.0215071432292, -0.994986050027, 0.0095712904, 0.0873380249, -10.1389875618
0.375802993774, -0.000672482299197, -0.0549755746203, -0.990583403844, 0.2297109696, -0.2943171798, -9.83988473685, 0.0121445880822, 0.0206667896595, -0.995706857807, 0.0346959277, 0.0789631458, -10.1461660296
0.386044979095, 0.0009266621051, -0.058713257908, -0.989618094061, 0.24466611085, -0.33200413575, -9.83031344645, 0.0126557734064, 0.0199464865999, -0.99756894457, 0.0394815729, 0.071784678, -10.1647104048
0.396307945251, 0.0009266621051, -0.058713257908, -0.989618094061, 0.24466611085, -0.33200413575, -9.83031344645, 0.0126557734064, 0.0199464865999, -0.99756894457, 0.0394815729, 0.071784678, -10.1647104048
0.406558990479, -0.00105627695623, -0.0622136279711, -0.992996678301, 0.2261217357, -0.3672982691, -9.86381296285, 0.011505606427, 0.0224075220538, -0.998770290869, 0.0394815729, 0.071784678, -10.1647104048
0.416741847992, -0.00105627695623, -0.0622136279711, -0.992996678301, 0.2261217357, -0.3672982691, -9.86381296285, 0.011505606427, 0.0224075220538, -0.998770290869, 0.0287138712, 0.09631110965, -10.1766745178
0.427196025848, -0.00105627695623, -0.0622136279711, -0.992996678301, 0.2261217357, -0.3672982691, -9.86381296285, 0.011505606427, 0.0224075220538, -0.998770290869, 0.0287138712, 0.09631110965, -10.1766745178
0.437690973282, -0.000288687642166, -0.058713257908, -0.988170129387, 0.2333002035, -0.33200413575, -9.81595651085, 0.0113139119304, 0.0226476230737, -0.995226319287, 0.02691925425, 0.09870393225, -10.1413803844
0.447906970978, -0.000288687642166, -0.058713257908, -0.988170129387, 0.2333002035, -0.33200413575, -9.81595651085, 0.0113139119304, 0.0226476230737, -0.995226319287, 0.02691925425, 0.09870393225, -10.1413803844
0.458146810532, -0.00118420850857, -0.0540263217218, -0.99335866947, 0.2249253244, -0.2847458894, -9.86740219675, 0.0112500137649, 0.0225875978187, -0.995346453917, 0.0263210486, 0.0981057266, -10.1425767957
0.468498945236, -0.00118420850857, -0.0540263217218, -0.99335866947, 0.2249253244, -0.2847458894, -9.86740219675, 0.0112500137649, 0.0225875978187, -0.995346453917, 0.0263210486, 0.0981057266, -10.1425767957
0.478718042374, 0.000159072791038, -0.0583572880711, -0.9895577622, 0.23748764305, -0.32841490185, -9.8297152408, 0.0107388284407, 0.0204867138946, -0.998590088925, 0.0215354034, 0.07716852885, -10.1748799008
0.489023923874, 0.000159072791038, -0.0583572880711, -0.9895577622, 0.23748764305, -0.32841490185, -9.8297152408, 0.0107388284407, 0.0204867138946, -0.998590088925, 0.0215354034, 0.07716852885, -10.1748799008
0.499217987061, 0.000990627881272, -0.061798329828, -0.989376766615, 0.2452643165, -0.36311082955, -9.82792062385, 0.0115695045925, 0.0189260572653, -0.995046117342, 0.02931207685, 0.06161518195, -10.1395857675
0.509447813034, 0.000990627881272, -0.061798329828, -0.989376766615, 0.2452643165, -0.36311082955, -9.82792062385, 0.0115695045925, 0.0189260572653, -0.995046117342, 0.02931207685, 0.06161518195, -10.1395857675
0.519651889801, 0.00105459365744, -0.055272216151, -0.99082473129, 0.24586252215, -0.29730820805, -9.84227755945, 0.00978035595781, 0.01970638558, -0.995466588547, 0.01256231865, 0.0693918554, -10.143773207
0.530117034912, 0.00105459365744, -0.055272216151, -0.99082473129, 0.24586252215, -0.29730820805, -9.84227755945, 0.00978035595781, 0.01970638558, -0.995466588547, 0.01256231865, 0.0693918554, -10.143773207
0.540259838104, -0.00169593471795, -0.0593658692757, -0.988773448001, 0.2201396792, -0.3385843979, -9.82193856735, 0.0115695045925, 0.0272095424516, -0.991622280389, 0.02931207685, 0.14416756165, -10.1054880454
0.550595998764, -0.00169593471795, -0.0593658692757, -0.988773448001, 0.2201396792, -0.3385843979, -9.82193856735, 0.0115695045925, 0.0272095424516, -0.991622280389, 0.02931207685, 0.14416756165, -10.1054880454
0.561049938202, -0.000288687642166, -0.0522464725372, -0.989497430338, 0.2333002035, -0.2667997199, -9.82911703515, 0.0103554394475, 0.0258289615872, -0.996367598271, 0.0179461695, 0.1304088317, -10.1527462918
0.571375846863, -0.000288687642166, -0.0522464725372, -0.989497430338, 0.2333002035, -0.2667997199, -9.82911703515, 0.0103554394475, 0.0258289615872, -0.996367598271, 0.0179461695, 0.1304088317, -10.1527462918
0.58199095726, -0.000288687642166, -0.0522464725372, -0.989497430338, 0.2333002035, -0.2667997199, -9.82911703515, 0.0103554394475, 0.0258289615872, -0.996367598271, 0.0179461695, 0.1304088317, -10.1527462918
0.592622041702, 0.00124649098596, -0.0531957254356, -0.99040240826, 0.2476571391, -0.2763710103, -9.8380901199, 0.0113778100959, 0.0182657794606, -0.993724636413, 0.0275174599, 0.0550349198, -10.1264252432
0.602741003036, 0.00124649098596, -0.0531957254356, -0.99040240826, 0.2476571391, -0.2763710103, -9.8380901199, 0.0113778100959, 0.0182657794606, -0.993724636413, 0.0275174599, 0.0550349198, -10.1264252432
0.613009929657, 0.000990627881272, -0.0581199748465, -0.992574355271, 0.2452643165, -0.32602207925, -9.8596255233, 0.0133586532272, 0.0232478756234, -0.994865915397, 0.04606183505, 0.10468598875, -10.1377911506
0.623358011246, 0.000990627881272, -0.0581199748465, -0.992574355271, 0.2452643165, -0.32602207925, -9.8596255233, 0.0133586532272, 0.0232478756234, -0.994865915397, 0.04606183505, 0.10468598875, -10.1377911506
0.633509874344, 0.00214201185237, -0.0566960954987, -0.989678425922, 0.2560320182, -0.31166514365, -9.8309116521, 0.00990815228886, 0.0227076483286, -0.99732867531, 0.01375872995, 0.0993021379, -10.1623175822
0.643795967102, 0.00214201185237, -0.0566960954987, -0.989678425922, 0.2560320182, -0.31166514365, -9.8309116521, 0.00990815228886, 0.0227076483286, -0.99732867531, 0.01375872995, 0.0993021379, -10.1623175822
0.654283046722, 0.0029735669426, -0.0620949713588, -0.988351124971, 0.26380869165, -0.3661018578, -9.8177511278, 0.0100998467854, 0.0192862087952, -0.996788069476, 0.0155533469, 0.06520441585, -10.1569337313
0.664502859116, 0.0029735669426, -0.0620949713588, -0.988351124971, 0.26380869165, -0.3661018578, -9.8177511278, 0.0100998467854, 0.0192862087952, -0.996788069476, 0.0155533469, 0.06520441585, -10.1569337313
0.674758911133, 0.0029735669426, -0.0620949713588, -0.988351124971, 0.26380869165, -0.3661018578, -9.8177511278, 0.0100998467854, 0.0192862087952, -0.996788069476, 0.0155533469, 0.06520441585, -10.1569337313
0.6850938797, 0.000159072791038, -0.0553315444572, -0.990462740121, 0.23748764305, -0.2979064137, -9.83868832555, 0.010291541282, 0.0190461077753, -0.995826992436, 0.01734796385, 0.06281159325, -10.1473624409
0.695242881775, 0.000478901671897, -0.0588319145203, -0.991488381766, 0.23748764305, -0.2979064137, -9.83868832555, 0.010291541282, 0.0190461077753, -0.995826992436, 0.01734796385, 0.06281159325, -10.1473624409
0.705410003662, 0.000478901671897, -0.0588319145203, -0.991488381766, 0.2404786713, -0.33320054705, -9.8488578216, 0.013933736717, 0.0276297192364, -0.997028338736, 0.0514456859, 0.1483550012, -10.1593265539
0.715581893921, 0.000478901671897, -0.0588319145203, -0.991488381766, 0.2404786713, -0.33320054705, -9.8488578216, 0.013933736717, 0.0276297192364, -0.997028338736, 0.0514456859, 0.1483550012, -10.1593265539
0.72588300705, -0.000992311180056, -0.0596031825003, -0.990462740121, 0.22671994135, -0.3409772205, -9.83868832555, 0.011505606427, 0.0228276988386, -0.997749146515, 0.0287138712, 0.1004985492, -10.1665050217
0.73619389534, -0.000992311180056, -0.0596031825003, -0.990462740121, 0.22671994135, -0.3409772205, -9.83868832555, 0.011505606427, 0.0228276988386, -0.997749146515, 0.0287138712, 0.1004985492, -10.1665050217
0.746356964111, -0.00150403738943, -0.0565774388864, -0.99124705432, 0.22193429615, -0.31046873235, -9.846464999, 0.0105471339441, 0.0204266886397, -0.996007194381, 0.01974078645, 0.0765703232, -10.1491570579
0.756515979767, -0.00150403738943, -0.0565774388864, -0.99124705432, 0.22193429615, -0.31046873235, -9.846464999, 0.0105471339441, 0.0204266886397, -0.996007194381, 0.01974078645, 0.0765703232, -10.1491570579
0.766680002213, 0.000670799000413, -0.0550349029264, -0.993841324361, 0.24227328825, -0.29491538545, -9.87218784195, 0.0100998467854, 0.0248685575077, -0.996247463641, 0.0155533469, 0.1208375413, -10.1515498805
0.777016878128, 0.000670799000413, -0.0550349029264, -0.993841324361, 0.24227328825, -0.29491538545, -9.87218784195, 0.0100998467854, 0.0248685575077, -0.996247463641, 0.0155533469, 0.1208375413, -10.1515498805
0.787205934525, 0.00169425141916, -0.0569334087234, -0.988894111724, 0.25184457865, -0.31405796625, -9.82313497865, 0.0102276431165, 0.0233679261333, -0.999010560129, 0.0167497582, 0.10588240005, -10.1790673404
0.797408819199, 0.00169425141916, -0.0569334087234, -0.988894111724, 0.25184457865, -0.31405796625, -9.82313497865, 0.0102276431165, 0.0233679261333, -0.999010560129, 0.0167497582, 0.10588240005, -10.1790673404
0.807632923126, 0.00169425141916, -0.0569334087234, -0.988894111724, 0.25184457865, -0.31405796625, -9.82313497865, 0.0102276431165, 0.0233679261333, -0.999010560129, 0.0167497582, 0.10588240005, -10.1790673404
0.817886829376, -0.000160756089822, -0.0566960954987, -0.988773448001, 0.2344966148, -0.31166514365, -9.82193856735, 0.010291541282, 0.0266693151569, -0.99816961772, 0.01734796385, 0.1387837108, -10.1706924613
0.828074932098, -0.000160756089822, -0.0566960954987, -0.988773448001, 0.2344966148, -0.31166514365, -9.82193856735, 0.010291541282, 0.0266693151569, -0.99816961772, 0.01734796385, 0.1387837108, -10.1706924613
0.838284015656, -0.000928345403884, -0.0542636349464, -0.989738757784, 0.227318147, -0.287138712, -9.83150985775, 0.0100359486199, 0.0225875978187, -0.999010560129, 0.01495514125, 0.0981057266, -10.1790673404
0.848480939865, -0.000928345403884, -0.0542636349464, -0.989738757784, 0.227318147, -0.287138712, -9.83150985775, 0.0100359486199, 0.0225875978187, -0.999010560129, 0.01495514125, 0.0981057266, -10.1790673404
0.858690977097, -0.000928345403884, -0.0542636349464, -0.989738757784, 0.227318147, -0.287138712, -9.83150985775, 0.0100359486199, 0.0225875978187, -0.999010560129, 0.01495514125, 0.0981057266, -10.1790673404
0.868840932846, -0.000672482299197, -0.0582979597649, -0.989799089645, 0.2297109696, -0.3278166962, -9.8321080634, 0.0104832357786, 0.01958633507, -0.996127329011, 0.0191425808, 0.0681954441, -10.1503534692
0.879021883011, -0.000672482299197, -0.0582979597649, -0.989799089645, 0.2297109696, -0.3278166962, -9.8321080634, 0.0104832357786, 0.01958633507, -0.996127329011, 0.0191425808, 0.0681954441, -10.1503534692
0.889181852341, -3.28245374781e-05, -0.0533737103541, -0.9895577622, 0.2356930261, -0.27816562725, -9.8297152408, 0.0112500137649, 0.0224675473087, -0.994986050027, 0.0263210486, 0.0969093153, -10.1389875618
0.899338960648, -3.28245374781e-05, -0.0533737103541, -0.9895577622, 0.2356930261, -0.27816562725, -9.8297152408, 0.0112500137649, 0.0224675473087, -0.994986050027, 0.0263210486, 0.0969093153, -10.1389875618
0.909487962723, 0.00303753271877, -0.0638748205434, -0.988411456832, 0.2644068973, -0.3840480273, -9.81834933345, 0.012847467903, 0.0243883554679, -0.999611233279, 0.04127618985, 0.1160518961, -10.1850493969
0.919692993164, 0.00303753271877, -0.0638748205434, -0.988411456832, 0.2644068973, -0.3840480273, -9.81834933345, 0.012847467903, 0.0243883554679, -0.999611233279, 0.04127618985, 0.1160518961, -10.1850493969
0.929891824722, 0.00303753271877, -0.0638748205434, -0.988411456832, 0.2644068973, -0.3840480273, -9.81834933345, 0.012847467903, 0.0243883554679, -0.999611233279, 0.04127618985, 0.1160518961, -10.1850493969
0.940156936646, -0.00227162670349, -0.0590098994388, -0.989316434754, 0.21475582835, -0.334995164, -9.8273224182, 0.0118889954201, 0.0171252996161, -0.994925982712, 0.0323031051, 0.04366901245, -10.1383893562
0.950402975082, -0.00227162670349, -0.0590098994388, -0.989316434754, 0.21475582835, -0.334995164, -9.8273224182, 0.0118889954201, 0.0171252996161, -0.994925982712, 0.0323031051, 0.04366901245, -10.1383893562
0.960644960403, -0.000544550746853, -0.0563401256618, -0.990704067567, 0.2309073809, -0.30807590975, -9.84108114815, 0.010163744951, 0.0224075220538, -0.996968271421, 0.01615155255, 0.09631110965, -10.1587283483
0.970929861069, -0.00207972937498, -0.0549755746203, -0.990764399428, 0.2165504453, -0.2943171798, -9.8416793538, 0.011505606427, 0.026369188882, -1.0000917718, 0.0287138712, 0.13579268255, -10.1898350421
0.981093883514, -0.00207972937498, -0.0549755746203, -0.990764399428, 0.2165504453, -0.2943171798, -9.8416793538, 0.011505606427, 0.026369188882, -1.0000917718, 0.0287138712, 0.13579268255, -10.1898350421
0.99135184288, -0.00207972937498, -0.0549755746203, -0.990764399428, 0.2165504453, -0.2943171798, -9.8416793538, 0.011505606427, 0.026369188882, -1.0000917718, 0.0287138712, 0.13579268255, -10.1898350421
1.00155496597, 0.000159072791038, -0.0555095293757, -0.991307386181, 0.23748764305, -0.29970103065, -9.84706320465, 0.0120806899167, 0.0215071432292, -0.996367598271, 0.03409772205, 0.0873380249, -10.1527462918
1.01198291779, 0.000159072791038, -0.0555095293757, -0.991307386181, 0.23748764305, -0.29970103065, -9.84706320465, 0.0120806899167, 0.0215071432292, -0.996367598271, 0.03409772205, 0.0873380249, -10.1527462918
1.02212786674, 0.000414935895725, -0.0584759446834, -0.992152032241, 0.23988046565, -0.32961131315, -9.85543808375, 0.00863018897836, 0.01958633507, -0.994445444192, 0.00179461695, 0.0681954441, -10.133603711
1.0322740078, 0.000414935895725, -0.0584759446834, -0.992152032241, 0.23988046565, -0.32961131315, -9.85543808375, 0.00863018897836, 0.01958633507, -0.994445444192, 0.00179461695, 0.0681954441, -10.133603711
1.04245495796, 0.000414935895725, -0.057941989928, -0.990704067567, 0.23988046565, -0.3242274623, -9.84108114815, 0.00978035595781, 0.0171853248711, -0.994085040303, 0.01256231865, 0.0442672181, -10.1300144771
1.05269193649, 0.000414935895725, -0.057941989928, -0.990704067567, 0.23988046565, -0.3242274623, -9.84108114815, 0.00978035595781, 0.0171853248711, -0.994085040303, 0.01256231865, 0.0442672181, -10.1300144771
1.06300401688, 0.00290960116643, -0.054500948171, -0.991488381766, 0.263210486, -0.2895315346, -9.8488578216, 0.0120167917512, 0.0235480018983, -0.997028338736, 0.0334995164, 0.107677017, -10.1593265539
1.07313895226, 0.00290960116643, -0.054500948171, -0.991488381766, 0.263210486, -0.2895315346, -9.8488578216, 0.0120167917512, 0.0235480018983, -0.997028338736, 0.0334995164, 0.107677017, -10.1593265539
1.08334684372, 0.00290960116643, -0.054500948171, -0.991488381766, 0.263210486, -0.2895315346, -9.8488578216, 0.0120167917512, 0.0235480018983, -0.997028338736, 0.0334995164, 0.107677017, -10.1593265539
1.09366989136, 0.0009266621051, -0.0538483368033, -0.991307386181, 0.24466611085, -0.28295127245, -9.84706320465, 0.0125918752409, 0.0183258047156, -0.996848136791, 0.03888336725, 0.05563312545, -10.157531937
1.10383296013, 0.0009266621051, -0.0538483368033, -0.991307386181, 0.24466611085, -0.28295127245, -9.84706320465, 0.0125918752409, 0.0183258047156, -0.996848136791, 0.03888336725, 0.05563312545, -10.157531937
1.1139729023, 0.00131045676213, -0.0590692277449, -0.99124705432, 0.24825534475, -0.33559336965, -9.846464999, 0.0102276431165, 0.0266092899019, -0.994565578822, 0.0167497582, 0.13818550515, -10.1348001223
1.12412881851, 0.00131045676213, -0.0590692277449, -0.99124705432, 0.24825534475, -0.33559336965, -9.846464999, 0.0102276431165, 0.0266092899019, -0.994565578822, 0.0167497582, 0.13818550515, -10.1348001223
1.13432693481, 0.00131045676213, -0.0564587822741, -0.988954443585, 0.24825534475, -0.30927232105, -9.8237331843, 0.0108666247717, 0.0267893656668, -0.9976890792, 0.0227318147, 0.1399801221, -10.1659068161
1.14461493492, 0.00131045676213, -0.0564587822741, -0.988954443585, 0.24825534475, -0.30927232105, -9.8237331843, 0.0108666247717, 0.0267893656668, -0.9976890792, 0.0227318147, 0.1399801221, -10.1659068161
1.15486502647, 0.000223038567209, -0.057941989928, -0.99124705432, 0.2380858487, -0.3242274623, -9.846464999, 0.0114417082615, 0.0224675473087, -0.996607867531, 0.02811566555, 0.0969093153, -10.1551391144
1.16526794434, -0.000224721865994, -0.0549755746203, -0.99124705432, 0.23389840915, -0.2943171798, -9.846464999, 0.00971645779229, 0.0189260572653, -0.999250829389, 0.011964113, 0.06161518195, -10.181460163
1.17557001114, -0.000224721865994, -0.0549755746203, -0.99124705432, 0.23389840915, -0.2943171798, -9.846464999, 0.00971645779229, 0.0189260572653, -0.999250829389, 0.011964113, 0.06161518195, -10.181460163
1.18592500687, 0.00188614874768, -0.0585946012957, -0.988954443585, 0.2536391956, -0.33080772445, -9.8237331843, 0.012719671572, 0.024148254448, -0.995586723177, 0.04007977855, 0.1136590735, -10.1449696184
1.19607281685, 0.00188614874768, -0.0585946012957, -0.988954443585, 0.2536391956, -0.33080772445, -9.8237331843, 0.012719671572, 0.024148254448, -0.995586723177, 0.04007977855, 0.1136590735, -10.1449696184
1.20629501343, 0.00188614874768, -0.0585946012957, -0.988954443585, 0.2536391956, -0.33080772445, -9.8237331843, 0.012719671572, 0.024148254448, -0.995586723177, 0.04007977855, 0.1136590735, -10.1449696184
1.21682286263, 0.00226994340471, -0.0558654992126, -0.989497430338, 0.2572284295, -0.30329026455, -9.82911703515, 0.0108027266062, 0.0216271937391, -0.995526655862, 0.02213360905, 0.0885344362, -10.1443714127
1.22701382637, 0.000862696328928, -0.0608490769296, -0.989618094061, 0.2440679052, -0.35353953915, -9.83031344645, 0.010163744951, 0.0228877240936, -0.999250829389, 0.01615155255, 0.10109675485, -10.181460163
1.23734998703, 0.000862696328928, -0.0608490769296, -0.989618094061, 0.2440679052, -0.35353953915, -9.83031344645, 0.010163744951, 0.0228877240936, -0.999250829389, 0.01615155255, 0.10109675485, -10.181460163
1.24752402306, -0.00131214006092, -0.062925567645, -0.990945395013, 0.2237289131, -0.3744767369, -9.84347397075, 0.0109305229373, 0.0275096687265, -0.997088406051, 0.02333002035, 0.1471585899, -10.1599247596
1.25779795647, -0.00131214006092, -0.062925567645, -0.990945395013, 0.2237289131, -0.3744767369, -9.84347397075, 0.0109305229373, 0.0275096687265, -0.997088406051, 0.02333002035, 0.1471585899, -10.1599247596
1.2680888176, -0.00131214006092, -0.062925567645, -0.990945395013, 0.2237289131, -0.3744767369, -9.84347397075, 0.0109305229373, 0.0275096687265, -0.997088406051, 0.02333002035, 0.1471585899, -10.1599247596
1.27831196785, 0.000159072791038, -0.0590692277449, -0.988351124971, 0.23748764305, -0.33559336965, -9.8177511278, 0.00978035595781, 0.0216872189941, -0.998770290869, 0.01256231865, 0.08913264185, -10.1766745178
1.28875398636, 0.00118252520979, -0.0556875142941, -0.989075107308, 0.24705893345, -0.3014956476, -9.8249295956, 0.0109305229373, 0.0207268149145, -0.995646790492, 0.02333002035, 0.07956135145, -10.145567824
1.29889082909, 0.00118252520979, -0.0556875142941, -0.989075107308, 0.24705893345, -0.3014956476, -9.8249295956, 0.0109305229373, 0.0207268149145, -0.995646790492, 0.02333002035, 0.07956135145, -10.145567824
1.30902886391, -0.00195179782263, -0.0540263217218, -0.991729709211, 0.2177468566, -0.2847458894, -9.8512506442, 0.0114417082615, 0.0246884817427, -0.994865915397, 0.02811566555, 0.11904292435, -10.1377911506
1.31916999817, -0.00195179782263, -0.0540263217218, -0.991729709211, 0.2177468566, -0.2847458894, -9.8512506442, 0.0114417082615, 0.0246884817427, -0.994865915397, 0.02811566555, 0.11904292435, -10.1377911506
1.32936286926, -0.00195179782263, -0.0540263217218, -0.991729709211, 0.2177468566, -0.2847458894, -9.8512506442, 0.0114417082615, 0.0246884817427, -0.994865915397, 0.02811566555, 0.11904292435, -10.1377911506
1.33954501152, 0.00163028564299, -0.0569927370295, -0.99040240826, 0.251246373, -0.3146561719, -9.8380901199, 0.0118250972546, 0.0223474967988, -0.995346453917, 0.03170489945, 0.095712904, -10.1425767957
1.34968900681, 0.00163028564299, -0.0569927370295, -0.99040240826, 0.251246373, -0.3146561719, -9.8380901199, 0.0118250972546, 0.0223474967988, -0.995346453917, 0.03170489945, 0.095712904, -10.1425767957
1.35995292664, 0.000350970119553, -0.0562807973557, -0.988652784278, 0.23928226, -0.3074777041, -9.82074215605, 0.0105471339441, 0.0224675473087, -0.994745780767, 0.01974078645, 0.0969093153, -10.1365947392
1.37035703659, 0.000350970119553, -0.0562807973557, -0.988652784278, 0.23928226, -0.3074777041, -9.82074215605, 0.0105471339441, 0.0224675473087, -0.994745780767, 0.01974078645, 0.0969093153, -10.1365947392
1.38054895401, -0.000928345403884, -0.0562214690495, -0.991066058735, 0.227318147, -0.30687949845, -9.84467038205, 0.010291541282, 0.0216271937391, -0.997749146515, 0.01734796385, 0.0885344362, -10.1665050217
1.39071893692, -0.000928345403884, -0.0562214690495, -0.991066058735, 0.227318147, -0.30687949845, -9.84467038205, 0.010291541282, 0.0216271937391, -0.997749146515, 0.01734796385, 0.0885344362, -10.1665050217
1.40091395378, 0.000223038567209, -0.0583572880711, -0.990161080814, 0.2380858487, -0.32841490185, -9.8356972973, 0.0119528935857, 0.0213270674643, -0.996667934846, 0.03290131075, 0.08554340795, -10.15573732
1.41116499901, 0.000223038567209, -0.0583572880711, -0.990161080814, 0.2380858487, -0.32841490185, -9.8356972973, 0.0119528935857, 0.0213270674643, -0.996667934846, 0.03290131075, 0.08554340795, -10.15573732
1.4215798378, 0.00111855943362, -0.0598404957249, -0.989859421507, 0.2464607278, -0.3433700431, -9.83270626905, 0.0105471339441, 0.019766410835, -0.994745780767, 0.01974078645, 0.06999006105, -10.1365947392
1.43190693855, 0.00111855943362, -0.0598404957249, -0.989859421507, 0.2464607278, -0.3433700431, -9.83270626905, 0.0105471339441, 0.019766410835, -0.994745780767, 0.01974078645, 0.06999006105, -10.1365947392
1.4420478344, -3.28245374781e-05, -0.0542636349464, -0.99166937735, 0.2356930261, -0.287138712, -9.85065243855, 0.0107388284407, 0.0246284564878, -0.996127329011, 0.0215354034, 0.1184447187, -10.1503534692
1.45222401619, -3.28245374781e-05, -0.0542636349464, -0.99166937735, 0.2356930261, -0.287138712, -9.85065243855, 0.0107388284407, 0.0246284564878, -0.996127329011, 0.0215354034, 0.1184447187, -10.1503534692
1.46324300766, 0.0009266621051, -0.0573487068664, -0.990342076398, 0.24466611085, -0.3182454058, -9.83749191425, 0.0122723844133, 0.0234279513883, -0.994325309562, 0.0215354034, 0.1184447187, -10.1503534692
1.47363495827, 0.0009266621051, -0.0573487068664, -0.990342076398, 0.24466611085, -0.3182454058, -9.83749191425, 0.0122723844133, 0.0234279513883, -0.994325309562, 0.035892339, 0.1064806057, -10.1324072997
1.48380804062, 0.0009266621051, -0.0573487068664, -0.990342076398, 0.24466611085, -0.3182454058, -9.83749191425, 0.0122723844133, 0.0234279513883, -0.994325309562, 0.035892339, 0.1064806057, -10.1324072997
1.49411702156, 0.00118252520979, -0.0578233333157, -0.989859421507, 0.24705893345, -0.323031051, -9.83270626905, 0.0104193376131, 0.0267293404118, -0.995346453917, 0.01854437515, 0.13938191645, -10.1425767957
1.50459599495, 0.00118252520979, -0.0578233333157, -0.989859421507, 0.24705893345, -0.323031051, -9.83270626905, 0.0104193376131, 0.0267293404118, -0.995346453917, 0.01854437515, 0.13938191645, -10.1425767957
1.51489686966, 0.00182218297151, -0.0559841558249, -0.988894111724, 0.25304098995, -0.30448667585, -9.82313497865, 0.0120806899167, 0.0239081534281, -0.995947127066, 0.03409772205, 0.1112662509, -10.1485588522
1.52510690689, 0.00182218297151, -0.0559841558249, -0.988894111724, 0.25304098995, -0.30448667585, -9.82313497865, 0.0120806899167, 0.0239081534281, -0.995947127066, 0.03409772205, 0.1112662509, -10.1485588522
1.53535604477, 0.000606833224241, -0.055628185988, -0.990161080814, 0.2416750826, -0.30089744195, -9.8356972973, 0.011505606427, 0.0260090373522, -0.994986050027, 0.0287138712, 0.13220344865, -10.1389875618
1.54568886757, 0.000606833224241, -0.055628185988, -0.990161080814, 0.2416750826, -0.30089744195, -9.8356972973, 0.011505606427, 0.0260090373522, -0.994986050027, 0.0287138712, 0.13220344865, -10.1389875618
1.55586004257, 0.000287004343381, -0.0572893785603, -0.990040417091, 0.23868405435, -0.31764720015, -9.834500886, 0.00978035595781, 0.0209068906794, -0.996007194381, 0.01256231865, 0.0813559684, -10.1491570579
1.56600403786, 0.000287004343381, -0.0572893785603, -0.990040417091, 0.23868405435, -0.31764720015, -9.834500886, 0.00978035595781, 0.0209068906794, -0.996007194381, 0.01256231865, 0.0813559684, -10.1491570579
1.57615184784, -0.00169593471795, -0.0507632648833, -0.989256102892, 0.2201396792, -0.25184457865, -9.82672421255, 0.0109305229373, 0.026429214137, -1.00099278152, 0.02333002035, 0.1363908882, -10.1988081269
1.58676481247, -0.00169593471795, -0.0507632648833, -0.989256102892, 0.2201396792, -0.25184457865, -9.82672421255, 0.0109305229373, 0.026429214137, -1.00099278152, 0.02333002035, 0.1363908882, -10.1988081269
1.59696388245, -0.00233559247967, -0.0597811674188, -0.99166937735, 0.2141576227, -0.34277183745, -9.85065243855, 0.0100359486199, 0.0207268149145, -0.994925982712, 0.01495514125, 0.07956135145, -10.1383893562
1.60709500313, -0.00233559247967, -0.0597811674188, -0.99166937735, 0.2141576227, -0.34277183745, -9.85065243855, 0.0100359486199, 0.0207268149145, -0.994925982712, 0.01495514125, 0.07956135145, -10.1383893562
1.6172068119, -0.00233559247967, -0.0597811674188, -0.99166937735, 0.2141576227, -0.34277183745, -9.85065243855, 0.0100359486199, 0.0207268149145, -0.994925982712, 0.01495514125, 0.07956135145, -10.1383893562
1.62737989426, -0.000416619194509, -0.0615610166034, -0.990161080814, 0.2321037922, -0.36071800695, -9.8356972973, 0.010291541282, 0.0203066381297, -0.992823626689, 0.01734796385, 0.0753739119, -10.1174521584
1.63763999939, -0.000416619194509, -0.0615610166034, -0.990161080814, 0.2321037922, -0.36071800695, -9.8356972973, 0.010291541282, 0.0203066381297, -0.992823626689, 0.01734796385, 0.0753739119, -10.1174521584
1.64810299873, 0.00124649098596, -0.0586539296018, -0.991126390597, 0.2476571391, -0.3314059301, -9.8452685877, 0.0104193376131, 0.0228877240936, -0.999010560129, 0.01854437515, 0.10109675485, -10.1790673404
1.65832686424, 0.00124649098596, -0.0586539296018, -0.991126390597, 0.2476571391, -0.3314059301, -9.8452685877, 0.0104193376131, 0.0228877240936, -0.999010560129, 0.01854437515, 0.10109675485, -10.1790673404
1.6685628891, 0.00124649098596, -0.0586539296018, -0.991126390597, 0.2476571391, -0.3314059301, -9.8452685877, 0.0104193376131, 0.0228877240936, -0.999010560129, 0.01854437515, 0.10109675485, -10.1790673404
1.67898488045, 0.000542867448069, -0.0588319145203, -0.99082473129, 0.24107687695, -0.33320054705, -9.84227755945, 0.00984425412334, 0.0234279513883, -0.997028338736, 0.0131605243, 0.1064806057, -10.1593265539
1.68912100792, 0.00195011452385, -0.0563401256618, -0.989256102892, 0.25423740125, -0.30807590975, -9.82672421255, 0.00946086513019, 0.0281699465312, -0.998710223554, 0.0095712904, 0.15373885205, -10.1760763122
1.69925189018, 0.00195011452385, -0.0563401256618, -0.989256102892, 0.25423740125, -0.30807590975, -9.82672421255, 0.00946086513019, 0.0281699465312, -0.998710223554, 0.0095712904, 0.15373885205, -10.1760763122
1.70943593979, -0.00131214006092, -0.0563401256618, -0.991005726874, 0.2237289131, -0.30807590975, -9.8440721764, 0.0119528935857, 0.0222274462888, -0.992403155484, 0.03290131075, 0.0945164927, -10.1132647189
1.7197508812, -0.00131214006092, -0.0563401256618, -0.991005726874, 0.2237289131, -0.30807590975, -9.8440721764, 0.0119528935857, 0.0222274462888, -0.992403155484, 0.03290131075, 0.0945164927, -10.1132647189
1.72991085052, -0.00131214006092, -0.0563401256618, -0.991005726874, 0.2237289131, -0.30807590975, -9.8440721764, 0.0119528935857, 0.0222274462888, -0.992403155484, 0.03290131075, 0.0945164927, -10.1132647189
1.74015903473, -9.67903136499e-05, -0.0596031825003, -0.993479333193, 0.23509482045, -0.3409772205, -9.86859860805, 0.00997205045439, 0.0217472442491, -0.996127329011, 0.0143569356, 0.0897308475, -10.1503534692
1.75046491623, 0.0009266621051, -0.061027061848, -0.991428049904, 0.24466611085, -0.3553341561, -9.84825961595, 0.0104193376131, 0.0236080271532, -0.997148473366, 0.01854437515, 0.10827522265, -10.1605229653
1.76065087318, 0.0009266621051, -0.061027061848, -0.991428049904, 0.24466611085, -0.3553341561, -9.84825961595, 0.0104193376131, 0.0236080271532, -0.997148473366, 0.01854437515, 0.10827522265, -10.1605229653
1.77086091042, 0.0009266621051, -0.061027061848, -0.991428049904, 0.24466611085, -0.3553341561, -9.84825961595, 0.0104193376131, 0.0236080271532, -0.997148473366, 0.01854437515, 0.10827522265, -10.1605229653
1.78117585182, 0.000159072791038, -0.0585946012957, -0.991428049904, 0.23748764305, -0.33080772445, -9.84825961595, 0.0112500137649, 0.0220473705239, -0.996547800216, 0.0263210486, 0.09272187575, -10.1545409087
1.79136490822, 0.000159072791038, -0.0585946012957, -0.991428049904, 0.23748764305, -0.33080772445, -9.84825961595, 0.0112500137649, 0.0220473705239, -0.996547800216, 0.0263210486, 0.09272187575, -10.1545409087
1.80164694786, 0.00124649098596, -0.070638247445, -0.989859421507, 0.2476571391, -0.4522434714, -9.83270626905, 0.00926917063361, 0.017365400636, -0.996848136791, 0.00777667345, 0.04606183505, -10.157531937
1.81180691719, 0.00124649098596, -0.070638247445, -0.989859421507, 0.2476571391, -0.4522434714, -9.83270626905, 0.00926917063361, 0.017365400636, -0.996848136791, 0.00777667345, 0.04606183505, -10.157531937
1.822026968, -0.000352653418337, -0.0591285560511, -0.988652784278, 0.23270199785, -0.3361915753, -9.82074215605, 0.0106749302752, 0.0193462340501, -0.998890425499, 0.02093719775, 0.0658026215, -10.1778709291
1.83230996132, -0.000352653418337, -0.0591285560511, -0.988652784278, 0.23270199785, -0.3361915753, -9.82074215605, 0.0106749302752, 0.0193462340501, -0.998890425499, 0.02093719775, 0.0658026215, -10.1778709291
1.84255695343, 0.000862696328928, -0.0708162323635, -0.991066058735, 0.2440679052, -0.45403808835, -9.84467038205, 0.00997205045439, 0.0186259309905, -1.0000917718, 0.0143569356, 0.0586241537, -10.1898350421
1.85295891762, 0.000862696328928, -0.0708162323635, -0.991066058735, 0.2440679052, -0.45403808835, -9.84467038205, 0.00997205045439, 0.0186259309905, -1.0000917718, 0.0143569356, 0.0586241537, -10.1898350421
1.86313796043, 0.00163028564299, -0.0578233333157, -0.990281744537, 0.251246373, -0.323031051, -9.8368937086, 0.00978035595781, 0.01958633507, -0.9976890792, 0.01256231865, 0.0681954441, -10.1659068161
1.87327384949, 0.00163028564299, -0.0578233333157, -0.990281744537, 0.251246373, -0.323031051, -9.8368937086, 0.00978035595781, 0.01958633507, -0.9976890792, 0.01256231865, 0.0681954441, -10.1659068161
1.88352203369, -0.000288687642166, -0.0599591523372, -0.98913543917, 0.251246373, -0.323031051, -9.8368937086, 0.00907747613703, 0.021807269504, -0.996788069476, 0.01256231865, 0.0681954441, -10.1659068161
1.89376091957, -0.000288687642166, -0.0599591523372, -0.98913543917, 0.2333002035, -0.3445664544, -9.82552780125, 0.00907747613703, 0.021807269504, -0.996788069476, 0.0059820565, 0.09032905315, -10.1569337313
1.90420603752, 0.000478901671897, -0.0561028124372, -0.990281744537, 0.2404786713, -0.30568308715, -9.8368937086, 0.0104832357786, 0.0214471179742, -0.996127329011, 0.0191425808, 0.08673981925, -10.1503534692
1.91445398331, 0.000478901671897, -0.0561028124372, -0.990281744537, 0.2404786713, -0.30568308715, -9.8368937086, 0.0104832357786, 0.0214471179742, -0.996127329011, 0.0191425808, 0.08673981925, -10.1503534692
1.92483782768, 0.00271770383791, -0.0436438681448, -0.990100748953, 0.2404786713, -0.30568308715, -9.8368937086, 0.0104832357786, 0.0214471179742, -0.996127329011, 0.0191425808, 0.08673981925, -10.1503534692
1.93501186371, 0.00271770383791, -0.0436438681448, -0.990100748953, 0.26141586905, -0.18005990065, -9.83509909165, 0.0111222174338, 0.0182657794606, -0.995766925121, 0.0251246373, 0.0550349198, -10.1467642353
1.94520998001, 0.00271770383791, -0.0436438681448, -0.990100748953, 0.26141586905, -0.18005990065, -9.83509909165, 0.0111222174338, 0.0182657794606, -0.995766925121, 0.0251246373, 0.0550349198, -10.1467642353
1.95546293259, 0.000862696328928, -0.0571113936418, -0.989919753368, 0.2440679052, -0.3158525832, -9.8333044747, 0.0109944211028, 0.0232478756234, -0.997268607995, 0.023928226, 0.10468598875, -10.1617193765
1.96564102173, 0.000862696328928, -0.0571113936418, -0.989919753368, 0.2440679052, -0.3158525832, -9.8333044747, 0.0109944211028, 0.0232478756234, -0.997268607995, 0.023928226, 0.10468598875, -10.1617193765
1.97586202621, -0.000416619194509, -0.0542636349464, -0.988351124971, 0.2321037922, -0.287138712, -9.8177511278, 0.00933306879914, 0.0191061330302, -0.999971637169, 0.0083748791, 0.0634097989, -10.1886386308
1.98627591133, -0.000416619194509, -0.0542636349464, -0.988351124971, 0.2321037922, -0.287138712, -9.8177511278, 0.00933306879914, 0.0191061330302, -0.999971637169, 0.0083748791, 0.0634097989, -10.1886386308
1.99648404121, 0.00105459365744, -0.062925567645, -0.992031368518, 0.24586252215, -0.3744767369, -9.85424167245, 0.0111861155994, 0.024148254448, -0.999130694759, 0.02572284295, 0.1136590735, -10.1802637517
2.00662899017, 0.00105459365744, -0.062925567645, -0.992031368518, 0.24586252215, -0.3744767369, -9.85424167245, 0.0111861155994, 0.024148254448, -0.999130694759, 0.02572284295, 0.1136590735, -10.1802637517
2.01688194275, 0.00124649098596, -0.0573487068664, -0.989497430338, 0.2476571391, -0.3182454058, -9.82911703515, 0.0108666247717, 0.0245684312328, -0.995526655862, 0.0227318147, 0.11784651305, -10.1443714127
2.02711987495, 0.00124649098596, -0.0573487068664, -0.989497430338, 0.2476571391, -0.3182454058, -9.82911703515, 0.0108666247717, 0.0245684312328, -0.995526655862, 0.0227318147, 0.11784651305, -10.1443714127
2.03756189346, 0.000414935895725, -0.0590692277449, -0.98998008523, 0.23988046565, -0.33559336965, -9.83390268035, 0.0131669587307, 0.0225875978187, -0.99853002161, 0.0442672181, 0.0981057266, -10.1742816952
2.04787302017, 0.000414935895725, -0.0590692277449, -0.98998008523, 0.23988046565, -0.33559336965, -9.83390268035, 0.0131669587307, 0.0225875978187, -0.99853002161, 0.0442672181, 0.0981057266, -10.1742816952
2.05815887451, 0.000606833224241, -0.0584166163772, -0.991367718043, 0.2416750826, -0.3290131075, -9.8476614103, 0.0125918752409, 0.0189860825203, -0.996307530956, 0.03888336725, 0.0622133876, -10.1521480861
2.06861400604, 0.000606833224241, -0.0584166163772, -0.991367718043, 0.2416750826, -0.3290131075, -9.8476614103, 0.0125918752409, 0.0189860825203, -0.996307530956, 0.03888336725, 0.0622133876, -10.1521480861
2.07876491547, 0.00188614874768, -0.0581793031526, -0.991729709211, 0.2536391956, -0.3266202849, -9.8512506442, 0.0118889954201, 0.0293104263757, -0.996127329011, 0.0323031051, 0.1651047594, -10.1503534692
2.08892297745, 0.00188614874768, -0.0581793031526, -0.991729709211, 0.2536391956, -0.3266202849, -9.8512506442, 0.0118889954201, 0.0293104263757, -0.996127329011, 0.0323031051, 0.1651047594, -10.1503534692
2.09916782379, 0.00188614874768, -0.0581793031526, -0.991729709211, 0.2536391956, -0.3266202849, -9.8512506442, 0.0118889954201, 0.0293104263757, -0.996127329011, 0.0323031051, 0.1651047594, -10.1503534692
2.10949802399, 0.00169425141916, -0.0564587822741, -0.987928801941, 0.25184457865, -0.30927232105, -9.81356368825, 0.0120167917512, 0.0210269411894, -0.995286386602, 0.0334995164, 0.0825523797, -10.1419785901
2.11964392662, 0.00169425141916, -0.0564587822741, -0.987928801941, 0.25184457865, -0.30927232105, -9.81356368825, 0.0120167917512, 0.0210269411894, -0.995286386602, 0.0334995164, 0.0825523797, -10.1419785901
2.12991189957, 3.11412386938e-05, -0.0524244574556, -0.994082651807, 0.23629123175, -0.26859433685, -9.87458066455, 0.011633402758, 0.0234279513883, -0.994505511507, 0.0299102825, 0.1064806057, -10.1342019166
2.14031982422, 3.11412386938e-05, -0.0524244574556, -0.994082651807, 0.23629123175, -0.26859433685, -9.87458066455, 0.011633402758, 0.0234279513883, -0.994505511507, 0.0299102825, 0.1064806057, -10.1342019166
2.15047383308, 0.0013744225383, -0.0589505711326, -0.99209170038, 0.2488535504, -0.33439695835, -9.8548398781, 0.0111861155994, 0.0204867138946, -0.992283020854, 0.02572284295, 0.07716852885, -10.1120683076
2.16063499451, 0.0013744225383, -0.0589505711326, -0.99209170038, 0.2488535504, -0.33439695835, -9.8548398781, 0.0111861155994, 0.0204867138946, -0.992283020854, 0.02572284295, 0.07716852885, -10.1120683076
2.17084598541, 0.00169425141916, -0.058713257908, -0.987325483326, 0.25184457865, -0.33200413575, -9.80758163175, 0.0108027266062, 0.021987345269, -0.998830358184, 0.02213360905, 0.0921236701, -10.1772727234
2.18120002747, 0.00169425141916, -0.058713257908, -0.987325483326, 0.25184457865, -0.33200413575, -9.80758163175, 0.0108027266062, 0.021987345269, -0.998830358184, 0.02213360905, 0.0921236701, -10.1772727234
2.19149684906, 0.00169425141916, -0.058713257908, -0.987325483326, 0.25184457865, -0.33200413575, -9.80758163175, 0.0108027266062, 0.021987345269, -0.998830358184, 0.02213360905, 0.0921236701, -10.1772727234
2.20166492462, -0.000672482299197, -0.0565774388864, -0.989316434754, 0.2297109696, -0.31046873235, -9.8273224182, 0.0127835697375, 0.021867294759, -0.99792934846, 0.0406779842, 0.0909272588, -10.1682996387
2.21217489243, -0.000672482299197, -0.0565774388864, -0.989316434754, 0.2297109696, -0.31046873235, -9.8273224182, 0.0127835697375, 0.021867294759, -0.99792934846, 0.0406779842, 0.0909272588, -10.1682996387
2.22240900993, 0.0009266621051, -0.0561621407434, -0.985937850513, 0.24466611085, -0.3062812928, -9.7938229018, 0.00997205045439, 0.0251686837825, -0.996728002161, 0.0143569356, 0.12382856955, -10.1563355257
2.23261499405, 0.0009266621051, -0.0561621407434, -0.985937850513, 0.24466611085, -0.3062812928, -9.7938229018, 0.00997205045439, 0.0251686837825, -0.996728002161, 0.0143569356, 0.12382856955, -10.1563355257
2.24277687073, -0.00118420850857, -0.0546789330895, -0.990945395013, 0.2249253244, -0.29132615155, -9.84347397075, 0.00971645779229, 0.0210869664444, -0.993604501783, 0.011964113, 0.08315058535, -10.1252288319
2.25292682648, -0.00118420850857, -0.0546789330895, -0.990945395013, 0.2249253244, -0.29132615155, -9.84347397075, 0.00971645779229, 0.0210869664444, -0.993604501783, 0.011964113, 0.08315058535, -10.1252288319
2.26312303543, -0.00214369515115, -0.0476188646571, -0.991428049904, 0.21595223965, -0.2201396792, -9.84825961595, 0.0129752642341, 0.017425425891, -0.993304165208, 0.04247260115, 0.0466600407, -10.1222378037
2.27326583862, -0.00214369515115, -0.0476188646571, -0.991428049904, 0.21595223965, -0.2201396792, -9.84825961595, 0.0129752642341, 0.017425425891, -0.993304165208, 0.04247260115, 0.0466600407, -10.1222378037
2.28344893456, -0.00214369515115, -0.0476188646571, -0.991428049904, 0.21595223965, -0.2201396792, -9.84825961595, 0.0129752642341, 0.017425425891, -0.993304165208, 0.04247260115, 0.0466600407, -10.1222378037
2.29365801811, 0.00233390918088, -0.057170721948, -0.992212364103, 0.25782663515, -0.31645078885, -9.8560362894, 0.0110583192683, 0.0242683049579, -0.997749146515, 0.02452643165, 0.1148554848, -10.1665050217
2.30406594276, -0.000800413851541, -0.0628069110327, -0.994384311114, 0.2285145583, -0.3732803256, -9.8775716928, 0.0123362825788, 0.0266693151569, -0.997208540681, 0.03649054465, 0.1387837108, -10.1611211709
2.31419992447, -0.000800413851541, -0.0628069110327, -0.994384311114, 0.2285145583, -0.3732803256, -9.8775716928, 0.0123362825788, 0.0266693151569, -0.997208540681, 0.03649054465, 0.1387837108, -10.1611211709
2.32435393333, 0.000223038567209, -0.0542043066403, -0.991609045488, 0.2380858487, -0.28654050635, -9.8500542329, 0.0116973009236, 0.0212070169543, -0.994805848082, 0.03050848815, 0.08434699665, -10.1371929449
2.33453202248, 0.000223038567209, -0.0542043066403, -0.991609045488, 0.2380858487, -0.28654050635, -9.8500542329, 0.0116973009236, 0.0212070169543, -0.994805848082, 0.03050848815, 0.08434699665, -10.1371929449
2.34511184692, -0.000544550746853, -0.0572300502541, -0.990100748953, 0.2309073809, -0.3170489945, -9.83509909165, 0.0106110321096, 0.0239681786831, -0.995526655862, 0.0203389921, 0.11186445655, -10.1443714127
2.35531997681, -0.000544550746853, -0.0572300502541, -0.990100748953, 0.2309073809, -0.3170489945, -9.83509909165, 0.0106110321096, 0.0239681786831, -0.995526655862, 0.0203389921, 0.11186445655, -10.1443714127
2.36552381516, 0.00156631986682, -0.057941989928, -0.990523071983, 0.25064816735, -0.3242274623, -9.8392865312, 0.0111861155994, 0.0265492646469, -0.99853002161, 0.02572284295, 0.1375872995, -10.1742816952
2.37567186356, 0.00156631986682, -0.057941989928, -0.990523071983, 0.25064816735, -0.3242274623, -9.8392865312, 0.0111861155994, 0.0265492646469, -0.99853002161, 0.02572284295, 0.1375872995, -10.1742816952
2.38585281372, -0.000608516523025, -0.0580013182341, -0.990100748953, 0.23030917525, -0.32482566795, -9.83509909165, 0.0100359486199, 0.0200665371098, -0.995286386602, 0.01495514125, 0.0729810893, -10.1419785901
2.3961930275, -0.000608516523025, -0.0580013182341, -0.990100748953, 0.23030917525, -0.32482566795, -9.83509909165, 0.0100359486199, 0.0200665371098, -0.995286386602, 0.01495514125, 0.0729810893, -10.1419785901
2.40647697449, 0.000606833224241, -0.062154299665, -0.989014775447, 0.2416750826, -0.36670006345, -9.82433138995, 0.00984425412334, 0.0200065118548, -0.993844771043, 0.0131605243, 0.07238288365, -10.1276216545
2.41662502289, 0.000606833224241, -0.062154299665, -0.989014775447, 0.2416750826, -0.36670006345, -9.82433138995, 0.00984425412334, 0.0200065118548, -0.993844771043, 0.0131605243, 0.07238288365, -10.1276216545
2.42678403854, 9.51070148657e-05, -0.0591878843572, -0.987989133802, 0.2368894374, -0.33678978095, -9.8141618939, 0.0112500137649, 0.021927320014, -0.9976890792, 0.0263210486, 0.09152546445, -10.1659068161
2.43697500229, 9.51070148657e-05, -0.0591878843572, -0.987989133802, 0.2368894374, -0.33678978095, -9.8141618939, 0.0112500137649, 0.021927320014, -0.9976890792, 0.0263210486, 0.09152546445, -10.1659068161
2.44713592529, 9.51070148657e-05, -0.0591878843572, -0.987989133802, 0.2368894374, -0.33678978095, -9.8141618939, 0.0112500137649, 0.021927320014, -0.9976890792, 0.0263210486, 0.09152546445, -10.1659068161
2.45738101006, 0.000862696328928, -0.0616796732157, -0.991609045488, 0.2440679052, -0.36191441825, -9.8500542329, 0.0113778100959, 0.0186259309905, -0.996908204106, 0.0275174599, 0.0586241537, -10.1581301426
2.46761393547, 0.000862696328928, -0.0616796732157, -0.991609045488, 0.2440679052, -0.36191441825, -9.8500542329, 0.0113778100959, 0.0186259309905, -0.996908204106, 0.0275174599, 0.0586241537, -10.1581301426
2.47785687447, 0.000478901671897, -0.0550942312326, -0.989316434754, 0.2404786713, -0.2955135911, -9.8273224182, 0.0105471339441, 0.0245084059778, -0.996607867531, 0.01974078645, 0.1172483074, -10.1551391144
2.48802185059, -0.000608516523025, -0.0597811674188, -0.989497430338, 0.23030917525, -0.34277183745, -9.82911703515, 0.00933306879914, 0.0204867138946, -0.995466588547, 0.01974078645, 0.1172483074, -10.1551391144
2.49857282639, -0.000608516523025, -0.0597811674188, -0.989497430338, 0.23030917525, -0.34277183745, -9.82911703515, 0.00933306879914, 0.0204867138946, -0.995466588547, 0.0083748791, 0.07716852885, -10.143773207
2.50878286362, -0.000608516523025, -0.0597811674188, -0.989497430338, 0.23030917525, -0.34277183745, -9.82911703515, 0.00933306879914, 0.0204867138946, -0.995466588547, 0.0083748791, 0.07716852885, -10.143773207
2.51894593239, -0.000608516523025, -0.0597811674188, -0.989497430338, 0.23030917525, -0.34277183745, -9.82911703515, 0.00933306879914, 0.0204867138946, -0.995466588547, 0.0083748791, 0.07716852885, -10.143773207
2.52913284302, -0.0011202427324, -0.0594251975819, -0.98913543917, 0.22552353005, -0.33918260355, -9.82552780125, 0.0110583192683, 0.0259490120972, -0.997148473366, 0.02452643165, 0.131605243, -10.1605229653
2.53939890862, -0.0011202427324, -0.0594251975819, -0.98913543917, 0.22552353005, -0.33918260355, -9.82552780125, 0.0110583192683, 0.0259490120972, -0.997148473366, 0.02452643165, 0.131605243, -10.1605229653
2.54983901978, -0.000480584970681, -0.0559248275187, -0.989859421507, 0.23150558655, -0.3038884702, -9.83270626905, 0.0130391623996, 0.0192862087952, -0.995406521232, 0.0430708068, 0.06520441585, -10.1431750014
2.56016087532, -0.000480584970681, -0.0559248275187, -0.989859421507, 0.23150558655, -0.3038884702, -9.83270626905, 0.0130391623996, 0.0192862087952, -0.995406521232, 0.0430708068, 0.06520441585, -10.1431750014
2.57034492493, -0.000480584970681, -0.0577046767034, -0.989859421507, 0.23150558655, -0.3218346397, -9.83270626905, 0.0108027266062, 0.0225875978187, -0.995406521232, 0.02213360905, 0.0981057266, -10.1431750014
2.58050084114, -0.000480584970681, -0.0577046767034, -0.989859421507, 0.23150558655, -0.3218346397, -9.83270626905, 0.0108027266062, 0.0225875978187, -0.995406521232, 0.02213360905, 0.0981057266, -10.1431750014
2.59065794945, -0.00163196894178, -0.057941989928, -0.9895577622, 0.22073788485, -0.3242274623, -9.8297152408, 0.0113139119304, 0.0221073957789, -0.993964905673, 0.02691925425, 0.0933200814, -10.1288180658
2.60079193115, -0.00163196894178, -0.057941989928, -0.9895577622, 0.22073788485, -0.3242274623, -9.8297152408, 0.0113139119304, 0.0221073957789, -0.993964905673, 0.02691925425, 0.0933200814, -10.1288180658
2.61106586456, -0.00163196894178, -0.057941989928, -0.9895577622, 0.22073788485, -0.3242274623, -9.8297152408, 0.0113139119304, 0.0221073957789, -0.993964905673, 0.02691925425, 0.0933200814, -10.1288180658
2.6214928627, -0.00227162670349, -0.0563401256618, -0.988894111724, 0.21475582835, -0.30807590975, -9.82313497865, 0.0100998467854, 0.021807269504, -0.997749146515, 0.0155533469, 0.09032905315, -10.1665050217
2.63165593147, -0.000864379627713, -0.0571113936418, -0.991609045488, 0.22791635265, -0.3158525832, -9.8500542329, 0.00978035595781, 0.0243883554679, -0.99792934846, 0.01256231865, 0.1160518961, -10.1682996387
2.64187693596, -0.000864379627713, -0.0571113936418, -0.991609045488, 0.22791635265, -0.3158525832, -9.8500542329, 0.00978035595781, 0.0243883554679, -0.99792934846, 0.01256231865, 0.1160518961, -10.1682996387
2.65216803551, -0.000992311180056, -0.0561028124372, -0.991488381766, 0.22671994135, -0.30568308715, -9.8488578216, 0.0107388284407, 0.0199464865999, -0.99853002161, 0.0215354034, 0.071784678, -10.1742816952
2.66234588623, -0.000992311180056, -0.0561028124372, -0.991488381766, 0.22671994135, -0.30568308715, -9.8488578216, 0.0107388284407, 0.0199464865999, -0.99853002161, 0.0215354034, 0.071784678, -10.1742816952
2.6724998951, 0.00329339582346, -0.0562807973557, -0.990342076398, 0.2667997199, -0.3074777041, -9.83749191425, 0.00888578164046, 0.0191061330302, -0.996788069476, 0.0215354034, 0.071784678, -10.1742816952
2.68264484406, 0.00329339582346, -0.0562807973557, -0.990342076398, 0.2667997199, -0.3074777041, -9.83749191425, 0.00888578164046, 0.0191061330302, -0.996788069476, 0.00418743955, 0.0634097989, -10.1569337313
2.69285702705, 0.00329339582346, -0.0562807973557, -0.990342076398, 0.2667997199, -0.3074777041, -9.83749191425, 0.00888578164046, 0.0191061330302, -0.996788069476, 0.00418743955, 0.0634097989, -10.1569337313
2.70301699638, -0.00233559247967, -0.0554502010695, -0.994142983669, 0.2141576227, -0.299102825, -9.8751788702, 0.0111222174338, 0.0212670422093, -0.994505511507, 0.0251246373, 0.0849452023, -10.1342019166
2.71320295334, -0.00233559247967, -0.0554502010695, -0.994142983669, 0.2141576227, -0.299102825, -9.8751788702, 0.0111222174338, 0.0212670422093, -0.994505511507, 0.0251246373, 0.0849452023, -10.1342019166
2.72336697578, -0.00175990049412, -0.0569927370295, -0.989437098477, 0.21954147355, -0.3146561719, -9.8285188295, 0.0144449220412, 0.0224075220538, -0.996848136791, 0.0562313311, 0.09631110965, -10.157531937
2.73351693153, -0.00175990049412, -0.0569927370295, -0.989437098477, 0.21954147355, -0.3146561719, -9.8285188295, 0.0144449220412, 0.0224075220538, -0.996848136791, 0.0562313311, 0.09631110965, -10.157531937
2.74373984337, -0.000544550746853, -0.0565181105803, -0.989799089645, 0.2309073809, -0.3098705267, -9.8321080634, 0.0126557734064, 0.0249886080176, -0.997629011885, 0.0394815729, 0.1220339526, -10.1653086104
2.75428581238, -0.000544550746853, -0.0565181105803, -0.989799089645, 0.2309073809, -0.3098705267, -9.8321080634, 0.0126557734064, 0.0249886080176, -0.997629011885, 0.0394815729, 0.1220339526, -10.1653086104
2.76444292068, 0.0025258065094, -0.0556875142941, -0.987204819604, 0.2596212521, -0.3014956476, -9.80638522045, 0.0109944211028, 0.0216872189941, -0.994925982712, 0.023928226, 0.08913264185, -10.1383893562
2.77467083931, 0.0025258065094, -0.0556875142941, -0.987204819604, 0.2596212521, -0.3014956476, -9.80638522045, 0.0109944211028, 0.0216872189941, -0.994925982712, 0.023928226, 0.08913264185, -10.1383893562
2.78501987457, 0.000350970119553, -0.0604337787865, -0.988592452417, 0.23928226, -0.3493520996, -9.8201439504, 0.0100359486199, 0.0200065118548, -0.994024972988, 0.01495514125, 0.07238288365, -10.1294162714
2.79521584511, 0.000350970119553, -0.0604337787865, -0.988592452417, 0.23928226, -0.3493520996, -9.8201439504, 0.0100359486199, 0.0200065118548, -0.994024972988, 0.01495514125, 0.07238288365, -10.1294162714
2.80556082726, 0.00124649098596, -0.0534330386603, -0.989919753368, 0.2476571391, -0.2787638329, -9.8333044747, 0.0114417082615, 0.0198864613449, -0.996487732901, 0.02811566555, 0.07118647235, -10.1539427031
2.81573581696, 0.00124649098596, -0.0534330386603, -0.989919753368, 0.2476571391, -0.2787638329, -9.8333044747, 0.0114417082615, 0.0198864613449, -0.996487732901, 0.02811566555, 0.07118647235, -10.1539427031
2.82595491409, -0.00246352403201, -0.0516531894756, -0.990523071983, 0.2129612114, -0.2608176634, -9.8392865312, 0.00882188347493, 0.0227076483286, -0.996788069476, 0.0035892339, 0.0993021379, -10.1569337313
2.83625888824, -0.00246352403201, -0.0516531894756, -0.990523071983, 0.2129612114, -0.2608176634, -9.8392865312, 0.00882188347493, 0.0227076483286, -0.996788069476, 0.0035892339, 0.0993021379, -10.1569337313
2.84641003609, -0.000160756089822, -0.0571113936418, -0.990704067567, 0.2344966148, -0.3158525832, -9.84108114815, 0.0117611990891, 0.0236680524082, -0.99732867531, 0.0311066938, 0.1088734283, -10.1623175822
2.85656690598, -0.000160756089822, -0.0571113936418, -0.990704067567, 0.2344966148, -0.3158525832, -9.84108114815, 0.0117611990891, 0.0236680524082, -0.99732867531, 0.0311066938, 0.1088734283, -10.1623175822
2.86676383018, -0.00175990049412, -0.0507632648833, -0.987627142634, 0.21954147355, -0.25184457865, -9.81057266, 0.0134864495583, 0.0239081534281, -0.997088406051, 0.04725824635, 0.1112662509, -10.1599247596
2.87696003914, -0.00175990049412, -0.0507632648833, -0.987627142634, 0.21954147355, -0.25184457865, -9.81057266, 0.0134864495583, 0.0239081534281, -0.997088406051, 0.04725824635, 0.1112662509, -10.1599247596
2.88731384277, 0.00105459365744, -0.0578233333157, -0.990583403844, 0.24586252215, -0.323031051, -9.83988473685, 0.0136142458893, 0.0194662845601, -0.996187396326, 0.04845465765, 0.0669990328, -10.1509516748
2.89762091637, 0.00105459365744, -0.0578233333157, -0.990583403844, 0.24586252215, -0.323031051, -9.83988473685, 0.0136142458893, 0.0194662845601, -0.996187396326, 0.04845465765, 0.0669990328, -10.1509516748
2.90777897835, 3.11412386938e-05, -0.043347226614, -0.989075107308, 0.23629123175, -0.1770688724, -9.8249295956, 0.0107388284407, 0.0204266886397, -0.994925982712, 0.0215354034, 0.0765703232, -10.1383893562
2.91797494888, 3.11412386938e-05, -0.043347226614, -0.989075107308, 0.23629123175, -0.1770688724, -9.8249295956, 0.0107388284407, 0.0204266886397, -0.994925982712, 0.0215354034, 0.0765703232, -10.1383893562
2.92821288109, 0.000798730552756, -0.0600184806434, -0.988773448001, 0.24346969955, -0.34516466005, -9.82193856735, 0.0137420422204, 0.0233679261333, -0.995526655862, 0.04965106895, 0.10588240005, -10.1443714127
2.93854904175, 0.000798730552756, -0.0600184806434, -0.988773448001, 0.24346969955, -0.34516466005, -9.82193856735, 0.0137420422204, 0.0233679261333, -0.995526655862, 0.04965106895, 0.10588240005, -10.1443714127
2.94869589806, -0.00175990049412, -0.0537890084972, -0.989799089645, 0.21954147355, -0.2823530668, -9.8321080634, 0.0124001807443, 0.0231878503684, -0.995466588547, 0.0370887503, 0.1040877831, -10.143773207
2.95887494087, -0.00175990049412, -0.0537890084972, -0.989799089645, 0.21954147355, -0.2823530668, -9.8321080634, 0.0124001807443, 0.0231878503684, -0.995466588547, 0.0370887503, 0.1040877831, -10.143773207
2.96931600571, -0.000480584970681, -0.0547975897018, -0.990462740121, 0.23150558655, -0.29252256285, -9.83868832555, 0.0113139119304, 0.0203666633847, -0.995947127066, 0.02691925425, 0.07597211755, -10.1485588522
2.97948598862, -0.000480584970681, -0.0547975897018, -0.990462740121, 0.23150558655, -0.29252256285, -9.83868832555, 0.0113139119304, 0.0203666633847, -0.995947127066, 0.02691925425, 0.07597211755, -10.1485588522
2.98965382576, 0.00214201185237, -0.0611457184603, -0.988652784278, 0.2560320182, -0.3565305674, -9.82074215605, 0.0106110321096, 0.0198264360899, -0.995646790492, 0.0203389921, 0.0705882667, -10.145567824
2.99985384941, 0.00214201185237, -0.0611457184603, -0.988652784278, 0.2560320182, -0.3565305674, -9.82074215605, 0.0106110321096, 0.0198264360899, -0.995646790492, 0.0203389921, 0.0705882667, -10.145567824
3.01006197929, 0.00233390918088, -0.0553315444572, -0.990342076398, 0.25782663515, -0.2979064137, -9.83749191425, 0.0109944211028, 0.0248685575077, -0.996307530956, 0.023928226, 0.1208375413, -10.1521480861
3.02034592628, 0.00233390918088, -0.0553315444572, -0.990342076398, 0.25782663515, -0.2979064137, -9.83749191425, 0.0109944211028, 0.0248685575077, -0.996307530956, 0.023928226, 0.1208375413, -10.1521480861
3.03048491478, 9.51070148657e-05, -0.0577640050095, -0.991790041073, 0.2368894374, -0.32243284535, -9.85184884985, 0.0103554394475, 0.0231278251134, -0.996427665586, 0.0179461695, 0.10348957745, -10.1533444974
3.04069685936, 9.51070148657e-05, -0.0577640050095, -0.991790041073, 0.2368894374, -0.32243284535, -9.85184884985, 0.0103554394475, 0.0231278251134, -0.996427665586, 0.0179461695, 0.10348957745, -10.1533444974
3.05098891258, 0.00220597762854, -0.0526024423741, -0.990764399428, 0.25663022385, -0.2703889538, -9.8416793538, 0.00978035595781, 0.0209068906794, -0.997388742625, 0.01256231865, 0.0813559684, -10.1629157879
3.06115984917, 0.00220597762854, -0.0526024423741, -0.990764399428, 0.25663022385, -0.2703889538, -9.8416793538, 0.00978035595781, 0.0209068906794, -0.997388742625, 0.01256231865, 0.0813559684, -10.1629157879
3.07156300545, -0.000736448075369, -0.0534923669664, -0.991850372934, 0.22911276395, -0.27936203855, -9.8524470555, 0.0124001807443, 0.0233079008784, -0.994745780767, 0.0370887503, 0.1052841944, -10.1365947392
3.08177304268, -0.000736448075369, -0.0534923669664, -0.991850372934, 0.22911276395, -0.27936203855, -9.8524470555, 0.0124001807443, 0.0233079008784, -0.994745780767, 0.0370887503, 0.1052841944, -10.1365947392
3.09194684029, -0.00252748980818, -0.0558654992126, -0.989678425922, 0.21236300575, -0.30329026455, -9.8309116521, 0.0130391623996, 0.0243883554679, -0.995646790492, 0.0430708068, 0.1160518961, -10.145567824
3.10227894783, -0.00252748980818, -0.0558654992126, -0.989678425922, 0.21236300575, -0.30329026455, -9.8309116521, 0.0130391623996, 0.0243883554679, -0.995646790492, 0.0430708068, 0.1160518961, -10.145567824
3.11246395111, -0.00137610583709, -0.0566367671926, -0.989256102892, 0.22313070745, -0.311066938, -9.82672421255, 0.0100359486199, 0.0201265623648, -0.996307530956, 0.01495514125, 0.07357929495, -10.1521480861
3.12260103226, -0.00137610583709, -0.0566367671926, -0.989256102892, 0.22313070745, -0.311066938, -9.82672421255, 0.0100359486199, 0.0201265623648, -0.996307530956, 0.01495514125, 0.07357929495, -10.1521480861
3.13275980949, -0.000928345403884, -0.0556875142941, -0.990462740121, 0.227318147, -0.3014956476, -9.83868832555, 0.0109944211028, 0.021807269504, -0.995887059751, 0.023928226, 0.09032905315, -10.1479606466
3.14297986031, -0.000928345403884, -0.0556875142941, -0.990462740121, 0.227318147, -0.3014956476, -9.83868832555, 0.0109944211028, 0.021807269504, -0.995887059751, 0.023928226, 0.09032905315, -10.1479606466
3.15360283852, -0.000992311180056, -0.0581793031526, -0.990704067567, 0.22671994135, -0.3266202849, -9.84108114815, 0.0107388284407, 0.0230077746035, -0.999190762074, 0.0215354034, 0.10229316615, -10.1808619573
3.16375494003, 0.0029735669426, -0.050644608271, -0.990583403844, 0.26380869165, -0.25064816735, -9.83988473685, 0.0120167917512, 0.0153845672219, -0.996427665586, 0.0334995164, 0.0263210486, -10.1533444974
3.17389893532, 0.0029735669426, -0.050644608271, -0.990583403844, 0.26380869165, -0.25064816735, -9.83988473685, 0.0120167917512, 0.0153845672219, -0.996427665586, 0.0334995164, 0.0263210486, -10.1533444974
3.18403601646, 0.0029735669426, -0.050644608271, -0.990583403844, 0.26380869165, -0.25064816735, -9.83988473685, 0.0120167917512, 0.0153845672219, -0.996427665586, 0.0334995164, 0.0263210486, -10.1533444974
3.19426202774, -0.00169593471795, -0.0558061709064, -0.990643735705, 0.2201396792, -0.3026920589, -9.8404829425, 0.0114417082615, 0.0211469916993, -0.995166251972, 0.02811566555, 0.083748791, -10.1407821788
3.20448184013, 0.000478901671897, -0.0501106535156, -0.990583403844, 0.2404786713, -0.2452643165, -9.83988473685, 0.00971645779229, 0.0221073957789, -0.997989415775, 0.011964113, 0.0933200814, -10.1688978443
3.21465492249, 0.000478901671897, -0.0501106535156, -0.990583403844, 0.2404786713, -0.2452643165, -9.83988473685, 0.00971645779229, 0.0221073957789, -0.997989415775, 0.011964113, 0.0933200814, -10.1688978443
3.2248840332, -0.000352653418337, -0.0587725862142, -0.988652784278, 0.23270199785, -0.3326023414, -9.82074215605, 0.0104193376131, 0.0189860825203, -0.997749146515, 0.01854437515, 0.0622133876, -10.1665050217
3.23514890671, -0.000352653418337, -0.0587725862142, -0.988652784278, 0.23270199785, -0.3326023414, -9.82074215605, 0.0104193376131, 0.0189860825203, -0.997749146515, 0.01854437515, 0.0622133876, -10.1665050217
3.24536204338, 0.00156631986682, -0.0577046767034, -0.989799089645, 0.25064816735, -0.3218346397, -9.8321080634, 0.012719671572, 0.0222274462888, -0.99732867531, 0.04007977855, 0.0945164927, -10.1623175822
3.25575089455, 0.00156631986682, -0.0577046767034, -0.989799089645, 0.25064816735, -0.3218346397, -9.8321080634, 0.012719671572, 0.0222274462888, -0.99732867531, 0.04007977855, 0.0945164927, -10.1623175822
3.26650381088, 0.0025258065094, -0.0603744504803, -0.991126390597, 0.2596212521, -0.34875389395, -9.8452685877, 0.0124001807443, 0.0236680524082, -0.995947127066, 0.0370887503, 0.1088734283, -10.1485588522
3.27671289444, 0.00182218297151, -0.0575266917849, -0.989376766615, 0.2596212521, -0.34875389395, -9.8452685877, 0.0124001807443, 0.0236680524082, -0.995947127066, 0.0370887503, 0.1088734283, -10.1485588522
3.28752398491, 0.00182218297151, -0.0575266917849, -0.989376766615, 0.25304098995, -0.32004002275, -9.82792062385, 0.00933306879914, 0.019646360325, -0.994565578822, 0.0083748791, 0.06879364975, -10.1348001223
3.2977399826, 0.00105459365744, -0.0594251975819, -0.990040417091, 0.24586252215, -0.33918260355, -9.834500886, 0.0111222174338, 0.0186859562454, -0.996247463641, 0.0251246373, 0.05922235935, -10.1515498805
3.30797886848, 0.00105459365744, -0.0594251975819, -0.990040417091, 0.24586252215, -0.33918260355, -9.834500886, 0.0111222174338, 0.0186859562454, -0.996247463641, 0.0251246373, 0.05922235935, -10.1515498805
3.31831598282, 0.00246184073323, -0.058713257908, -0.990945395013, 0.25902304645, -0.33200413575, -9.84347397075, 0.0136142458893, 0.0211469916993, -0.996848136791, 0.04845465765, 0.083748791, -10.157531937
3.32850289345, 0.00246184073323, -0.058713257908, -0.990945395013, 0.25902304645, -0.33200413575, -9.84347397075, 0.0136142458893, 0.0211469916993, -0.996848136791, 0.04845465765, 0.083748791, -10.157531937
3.33878087997, -0.000224721865994, -0.061383031685, -0.992031368518, 0.23389840915, -0.35892339, -9.85424167245, 0.0102276431165, 0.0249285827626, -0.999190762074, 0.0167497582, 0.12143574695, -10.1808619573
3.34892487526, 0.00239787495705, -0.0564587822741, -0.990764399428, 0.2584248408, -0.30927232105, -9.8416793538, 0.0102276431165, 0.0249285827626, -0.999190762074, 0.0191425808, 0.07357929495, -10.1605229653
3.35957288742, 0.00239787495705, -0.0564587822741, -0.990764399428, 0.2584248408, -0.30927232105, -9.8416793538, 0.0104832357786, 0.0201265623648, -0.997148473366, 0.0191425808, 0.07357929495, -10.1605229653
3.36982989311, 0.00239787495705, -0.0564587822741, -0.990764399428, 0.2584248408, -0.30927232105, -9.8416793538, 0.0104832357786, 0.0201265623648, -0.997148473366, 0.0191425808, 0.07357929495, -10.1605229653
3.379997015, 0.000606833224241, -0.0569334087234, -0.987204819604, 0.2416750826, -0.31405796625, -9.80638522045, 0.00984425412334, 0.0252287090375, -0.992162886224, 0.0131605243, 0.1244267752, -10.1108718963
3.39014792442, 0.000606833224241, -0.0569334087234, -0.987204819604, 0.2416750826, -0.31405796625, -9.80638522045, 0.00984425412334, 0.0252287090375, -0.992162886224, 0.0131605243, 0.1244267752, -10.1108718963
3.40052986145, 0.000606833224241, -0.0571113936418, -0.99082473129, 0.2416750826, -0.3158525832, -9.84227755945, 0.0115695045925, 0.0215071432292, -0.998950492814, 0.02931207685, 0.0873380249, -10.1784691347
3.41069698334, 0.000414935895725, -0.054856918008, -0.989799089645, 0.23988046565, -0.2931207685, -9.8321080634, 0.010291541282, 0.0273295929616, -1.00021190643, 0.01734796385, 0.14536397295, -10.1910314534
3.42084503174, 0.000414935895725, -0.054856918008, -0.989799089645, 0.23988046565, -0.2931207685, -9.8321080634, 0.010291541282, 0.0273295929616, -1.00021190643, 0.01734796385, 0.14536397295, -10.1910314534
3.43110489845, 0.00188614874768, -0.0541449783341, -0.987989133802, 0.2536391956, -0.2859423007, -9.8141618939, 0.00971645779229, 0.0228877240936, -0.996667934846, 0.011964113, 0.10109675485, -10.15573732
3.44180893898, -0.000160756089822, -0.0592472126634, -0.990583403844, 0.2344966148, -0.3373879866, -9.83988473685, 0.00901357797151, 0.021807269504, -0.995526655862, 0.00538385085, 0.09032905315, -10.1443714127
3.45201301575, -0.000160756089822, -0.0592472126634, -0.990583403844, 0.2344966148, -0.3373879866, -9.83988473685, 0.00901357797151, 0.021807269504, -0.995526655862, 0.00538385085, 0.09032905315, -10.1443714127
3.46285390854, 0.00111855943362, -0.0578826616218, -0.991186722458, 0.2344966148, -0.3373879866, -9.83988473685, 0.00901357797151, 0.021807269504, -0.995526655862, 0.00538385085, 0.09032905315, -10.1443714127
3.47379684448, 0.00111855943362, -0.0578826616218, -0.991186722458, 0.2464607278, -0.32362925665, -9.84586679335, 0.0117611990891, 0.0185659057355, -0.996908204106, 0.0311066938, 0.05802594805, -10.1581301426
3.4839618206, -0.000864379627713, -0.0516531894756, -0.991066058735, 0.22791635265, -0.2608176634, -9.84467038205, 0.00965255962676, 0.0217472442491, -0.997208540681, 0.01136590735, 0.0897308475, -10.1611211709
3.49423599243, -0.000864379627713, -0.0516531894756, -0.991066058735, 0.22791635265, -0.2608176634, -9.84467038205, 0.00965255962676, 0.0217472442491, -0.997208540681, 0.01136590735, 0.0897308475, -10.1611211709
3.50471401215, 0.0029735669426, -0.0569334087234, -0.987325483326, 0.26380869165, -0.31405796625, -9.80758163175, 0.00997205045439, 0.0217472442491, -0.993724636413, 0.0143569356, 0.0897308475, -10.1264252432
3.51498985291, 0.0029735669426, -0.0569334087234, -0.987325483326, 0.26380869165, -0.31405796625, -9.80758163175, 0.00997205045439, 0.0217472442491, -0.993724636413, 0.0143569356, 0.0897308475, -10.1264252432
3.52534389496, 0.000350970119553, -0.059484525888, -0.990643735705, 0.23928226, -0.3397808092, -9.8404829425, 0.0104832357786, 0.0247485069977, -0.996427665586, 0.0191425808, 0.11964113, -10.1533444974
3.53548884392, 0.000350970119553, -0.059484525888, -0.990643735705, 0.23928226, -0.3397808092, -9.8404829425, 0.0104832357786, 0.0247485069977, -0.996427665586, 0.0191425808, 0.11964113, -10.1533444974
3.54563188553, 0.00111855943362, -0.0550349029264, -0.991186722458, 0.2464607278, -0.29491538545, -9.84586679335, 0.00939696696466, 0.0226476230737, -0.997869281145, 0.00897308475, 0.09870393225, -10.1677014331
3.55578494072, 0.00111855943362, -0.0550349029264, -0.991186722458, 0.2464607278, -0.29491538545, -9.84586679335, 0.00939696696466, 0.0226476230737, -0.997869281145, 0.00897308475, 0.09870393225, -10.1677014331
3.5659558773, -0.00310318179373, -0.0600184806434, -0.990100748953, 0.2069791549, -0.34516466005, -9.83509909165, 0.0111861155994, 0.0266092899019, -0.997989415775, 0.02572284295, 0.13818550515, -10.1688978443
3.57639098167, 0.000478901671897, -0.0585946012957, -0.990643735705, 0.2404786713, -0.33080772445, -9.8404829425, 0.0116973009236, 0.0250486332726, -0.99816961772, 0.03050848815, 0.12263215825, -10.1706924613
3.58652901649, 0.000478901671897, -0.0585946012957, -0.990643735705, 0.2404786713, -0.33080772445, -9.8404829425, 0.0116973009236, 0.0250486332726, -0.99816961772, 0.03050848815, 0.12263215825, -10.1706924613
3.59674787521, 0.00418891668987, -0.0556875142941, -0.991488381766, 0.275174599, -0.3014956476, -9.8488578216, 0.0107388284407, 0.0175454764009, -0.996307530956, 0.0215354034, 0.047856452, -10.1521480861
3.60700488091, 0.00418891668987, -0.0556875142941, -0.991488381766, 0.275174599, -0.3014956476, -9.8488578216, 0.0107388284407, 0.0175454764009, -0.996307530956, 0.0215354034, 0.047856452, -10.1521480861
3.61730504036, 0.000670799000413, -0.0551535595387, -0.991186722458, 0.24227328825, -0.29611179675, -9.84586679335, 0.0107388284407, 0.024028203938, -0.993724636413, 0.0215354034, 0.1124626622, -10.1264252432
3.62772893906, 0.000670799000413, -0.0551535595387, -0.991186722458, 0.24227328825, -0.29611179675, -9.84586679335, 0.0107388284407, 0.024028203938, -0.993724636413, 0.0215354034, 0.1124626622, -10.1264252432
3.63805890083, -0.000224721865994, -0.0606710920111, -0.987687474495, 0.23389840915, -0.3517449222, -9.81117086565, 0.0102276431165, 0.0226476230737, -0.995226319287, 0.0167497582, 0.09870393225, -10.1413803844
3.6487300396, -0.000224721865994, -0.0606710920111, -0.987687474495, 0.23389840915, -0.3517449222, -9.81117086565, 0.0102276431165, 0.0226476230737, -0.995226319287, 0.0167497582, 0.09870393225, -10.1413803844
3.65891098976, 0.000734764776585, -0.0555688576818, -0.990040417091, 0.2428714939, -0.3002992363, -9.834500886, 0.0117611990891, 0.0236080271532, -0.996728002161, 0.0311066938, 0.10827522265, -10.1563355257
3.66940903664, 0.000734764776585, -0.0555688576818, -0.990040417091, 0.2428714939, -0.3002992363, -9.834500886, 0.0117611990891, 0.0236080271532, -0.996728002161, 0.0311066938, 0.10827522265, -10.1563355257
3.67975091934, 0.00175821719533, -0.0559248275187, -0.988773448001, 0.2524427843, -0.3038884702, -9.82193856735, 0.0106110321096, 0.0224675473087, -0.996968271421, 0.0203389921, 0.0969093153, -10.1587283483
3.68990683556, -9.67903136499e-05, -0.0569334087234, -0.990885063151, 0.23509482045, -0.31405796625, -9.8428757651, 0.011505606427, 0.0256488858223, -0.995646790492, 0.0287138712, 0.12861421475, -10.145567824
3.70006299019, -9.67903136499e-05, -0.0569334087234, -0.990885063151, 0.23509482045, -0.31405796625, -9.8428757651, 0.011505606427, 0.0256488858223, -0.995646790492, 0.0287138712, 0.12861421475, -10.145567824
3.71021699905, 3.11412386938e-05, -0.0562807973557, -0.990583403844, 0.23629123175, -0.3074777041, -9.83988473685, 0.0074800219989, 0.024028203938, -0.998770290869, -0.00897308475, 0.1124626622, -10.1766745178
3.72038888931, 3.11412386938e-05, -0.0562807973557, -0.990583403844, 0.23629123175, -0.3074777041, -9.83988473685, 0.0074800219989, 0.024028203938, -0.998770290869, -0.00897308475, 0.1124626622, -10.1766745178
3.73055887222, 0.00169425141916, -0.0559841558249, -0.990100748953, 0.25184457865, -0.30448667585, -9.83509909165, 0.0122723844133, 0.026309163627, -0.99804948309, 0.035892339, 0.1351944769, -10.16949605
3.74143099785, 0.00169425141916, -0.0559841558249, -0.990100748953, 0.2548356069, -0.28414768375, -9.8536434668, 0.00965255962676, 0.0221674210339, -0.994685713452, 0.01136590735, 0.09391828705, -10.1359965336
3.75173091888, 0.00201408030002, -0.0539669934156, -0.991971036657, 0.2548356069, -0.28414768375, -9.8536434668, 0.00965255962676, 0.0221674210339, -0.994685713452, 0.01136590735, 0.09391828705, -10.1359965336
3.76187300682, 0.000159072791038, -0.0568147521111, -0.988290793109, 0.23748764305, -0.31286155495, -9.81715292215, 0.00997205045439, 0.0181457289507, -0.995947127066, 0.0143569356, 0.0538385085, -10.1485588522
3.77199888229, 0.000159072791038, -0.0568147521111, -0.988290793109, 0.23748764305, -0.31286155495, -9.81715292215, 0.00997205045439, 0.0181457289507, -0.995947127066, 0.0143569356, 0.0538385085, -10.1485588522
3.78213095665, 0.000542867448069, -0.0539669934156, -0.989799089645, 0.24107687695, -0.28414768375, -9.8321080634, 0.0118889954201, 0.0215671684841, -1.00033204106, 0.0323031051, 0.08793623055, -10.1922278647
3.79237294197, 0.000542867448069, -0.0539669934156, -0.989799089645, 0.24107687695, -0.28414768375, -9.8321080634, 0.0118889954201, 0.0215671684841, -1.00033204106, 0.0323031051, 0.08793623055, -10.1922278647
3.80266690254, 0.000542867448069, -0.0539669934156, -0.989799089645, 0.24107687695, -0.28414768375, -9.8321080634, 0.0118889954201, 0.0215671684841, -1.00033204106, 0.0323031051, 0.08793623055, -10.1922278647
3.81297588348, -0.000672482299197, -0.0575860200911, -0.990583403844, 0.2297109696, -0.3206382284, -9.83988473685, 0.010163744951, 0.0222874715438, -0.996187396326, 0.01615155255, 0.09511469835, -10.1509516748
3.82341098785, -0.000672482299197, -0.0583572880711, -0.989618094061, 0.2297109696, -0.32841490185, -9.83031344645, 0.00971645779229, 0.0211469916993, -0.993003828633, 0.011964113, 0.083748791, -10.1192467754
3.83356785774, -0.000672482299197, -0.0583572880711, -0.989618094061, 0.2297109696, -0.32841490185, -9.83031344645, 0.00971645779229, 0.0211469916993, -0.993003828633, 0.011964113, 0.083748791, -10.1192467754
3.84373784065, -0.00252748980818, -0.0587725862142, -0.990704067567, 0.21236300575, -0.3326023414, -9.84108114815, 0.0113778100959, 0.0194062593051, -0.996908204106, 0.0275174599, 0.06640082715, -10.1581301426
3.85397791862, -0.00252748980818, -0.0587725862142, -0.990704067567, 0.21236300575, -0.3326023414, -9.84108114815, 0.0113778100959, 0.0194062593051, -0.996908204106, 0.0275174599, 0.06640082715, -10.1581301426
3.86452484131, 0.000350970119553, -0.0510005781079, -0.988230461248, 0.23928226, -0.25423740125, -9.8165547165, 0.00990815228886, 0.026249138372, -0.995046117342, 0.01375872995, 0.13459627125, -10.1395857675
3.87516689301, 0.000350970119553, -0.0510005781079, -0.988230461248, 0.23928226, -0.25423740125, -9.8165547165, 0.00990815228886, 0.026249138372, -0.995046117342, 0.01375872995, 0.13459627125, -10.1395857675
3.8853199482, 0.00131045676213, -0.0563401256618, -0.990704067567, 0.24825534475, -0.30807590975, -9.84108114815, 0.00997205045439, 0.0215071432292, -0.999250829389, 0.0143569356, 0.0873380249, -10.181460163
3.89549303055, 0.00131045676213, -0.0563401256618, -0.990704067567, 0.24825534475, -0.30807590975, -9.84108114815, 0.00997205045439, 0.0215071432292, -0.999250829389, 0.0143569356, 0.0873380249, -10.181460163
3.90564894676, 3.11412386938e-05, -0.0561028124372, -0.990221412675, 0.23629123175, -0.30568308715, -9.83629550295, 0.0109944211028, 0.0260090373522, -1.00093271421, 0.023928226, 0.13220344865, -10.1982099212
3.9158039093, 3.11412386938e-05, -0.0561028124372, -0.990221412675, 0.23629123175, -0.30568308715, -9.83629550295, 0.0109944211028, 0.0260090373522, -1.00093271421, 0.023928226, 0.13220344865, -10.1982099212
3.92636394501, 3.11412386938e-05, -0.0561028124372, -0.990221412675, 0.23629123175, -0.30568308715, -9.83629550295, 0.0109944211028, 0.0260090373522, -1.00093271421, 0.023928226, 0.13220344865, -10.1982099212
3.9365530014, -0.000992311180056, -0.0558654992126, -0.990040417091, 0.22671994135, -0.30329026455, -9.834500886, 0.0104193376131, 0.0190461077753, -0.996908204106, 0.01854437515, 0.06281159325, -10.1581301426
3.94673800468, -0.000288687642166, -0.0580013182341, -0.988351124971, 0.2333002035, -0.32482566795, -9.8177511278, 0.0113139119304, 0.0237881029181, -0.996547800216, 0.02691925425, 0.1100698396, -10.1545409087
3.95692396164, -0.000288687642166, -0.0580013182341, -0.988351124971, 0.2333002035, -0.32482566795, -9.8177511278, 0.0113139119304, 0.0237881029181, -0.996547800216, 0.02691925425, 0.1100698396, -10.1545409087
3.9671959877, -3.28245374781e-05, -0.0559841558249, -0.989618094061, 0.2356930261, -0.30448667585, -9.83031344645, 0.00914137430256, 0.0207268149145, -0.996788069476, 0.00658026215, 0.07956135145, -10.1569337313
3.97741889954, -3.28245374781e-05, -0.0559841558249, -0.989618094061, 0.2356930261, -0.30448667585, -9.83031344645, 0.00914137430256, 0.0207268149145, -0.996788069476, 0.00658026215, 0.07956135145, -10.1569337313
3.98788499832, -3.28245374781e-05, -0.0559841558249, -0.989618094061, 0.2356930261, -0.30448667585, -9.83031344645, 0.00914137430256, 0.0207268149145, -0.996788069476, 0.00658026215, 0.07956135145, -10.1569337313
3.9981098175, -0.00201576359881, -0.062154299665, -0.991066058735, 0.21714865095, -0.36670006345, -9.84467038205, 0.0074800219989, 0.0191661582852, -0.996067261696, -0.00897308475, 0.06400800455, -10.1497552636
4.00840902328, -0.000480584970681, -0.0607304203173, -0.991307386181, 0.23150558655, -0.35234312785, -9.84706320465, 0.0107388284407, 0.0235480018983, -0.996247463641, -0.00897308475, 0.06400800455, -10.1497552636
4.01858496666, -0.000480584970681, -0.0607304203173, -0.991307386181, 0.23150558655, -0.35234312785, -9.84706320465, 0.0107388284407, 0.0235480018983, -0.996247463641, 0.0215354034, 0.107677017, -10.1515498805
4.02879095078, -0.000480584970681, -0.0607304203173, -0.991307386181, 0.23150558655, -0.35234312785, -9.84706320465, 0.0107388284407, 0.0235480018983, -0.996247463641, 0.0215354034, 0.107677017, -10.1515498805
4.03907585144, 0.000159072791038, -0.0586539296018, -0.989256102892, 0.23748764305, -0.3314059301, -9.82672421255, 0.0102276431165, 0.0207268149145, -0.995947127066, 0.0167497582, 0.07956135145, -10.1485588522
4.04923701286, 0.000159072791038, -0.0586539296018, -0.989256102892, 0.23748764305, -0.3314059301, -9.82672421255, 0.0102276431165, 0.0207268149145, -0.995947127066, 0.0167497582, 0.07956135145, -10.1485588522
4.0594959259, -9.67903136499e-05, -0.0577640050095, -0.988109797525, 0.23509482045, -0.32243284535, -9.8153583052, 0.0120167917512, 0.0236680524082, -0.997869281145, 0.0334995164, 0.1088734283, -10.1677014331
4.06993293762, -9.67903136499e-05, -0.0577640050095, -0.988109797525, 0.23509482045, -0.32243284535, -9.8153583052, 0.0120167917512, 0.0236680524082, -0.997869281145, 0.0334995164, 0.1088734283, -10.1677014331
4.08007287979, 3.11412386938e-05, -0.0604931070926, -0.990221412675, 0.23629123175, -0.34995030525, -9.83629550295, 0.00952476329571, 0.0247485069977, -0.996788069476, 0.01016949605, 0.11964113, -10.1569337313
4.09022498131, 3.11412386938e-05, -0.0604931070926, -0.990221412675, 0.23629123175, -0.34995030525, -9.83629550295, 0.00952476329571, 0.0247485069977, -0.996788069476, 0.01016949605, 0.11964113, -10.1569337313
4.10036802292, 3.11412386938e-05, -0.0604931070926, -0.990221412675, 0.23629123175, -0.34995030525, -9.83629550295, 0.00952476329571, 0.0247485069977, -0.996788069476, 0.01016949605, 0.11964113, -10.1569337313
4.11052083969, -3.28245374781e-05, -0.0559841558249, -0.990523071983, 0.2356930261, -0.30448667585, -9.8392865312, 0.010291541282, 0.0223474967988, -0.995166251972, 0.01734796385, 0.095712904, -10.1407821788
4.12081289291, -0.000736448075369, -0.0549162463141, -0.99124705432, 0.22911276395, -0.29371897415, -9.846464999, 0.00984425412334, 0.0231278251134, -0.996728002161, 0.0131605243, 0.10348957745, -10.1563355257
4.1309440136, -0.000736448075369, -0.0549162463141, -0.99124705432, 0.22911276395, -0.29371897415, -9.846464999, 0.00984425412334, 0.0231278251134, -0.996728002161, 0.0131605243, 0.10348957745, -10.1563355257
4.14110183716, -0.000736448075369, -0.0549162463141, -0.99124705432, 0.22911276395, -0.29371897415, -9.846464999, 0.00984425412334, 0.0231278251134, -0.996728002161, 0.0131605243, 0.10348957745, -10.1563355257
4.15128087997, 0.000606833224241, -0.0589505711326, -0.990643735705, 0.2416750826, -0.33439695835, -9.8404829425, 0.0118889954201, 0.0224075220538, -0.996667934846, 0.0323031051, 0.09631110965, -10.15573732
4.16144990921, -0.000672482299197, -0.0612050467665, -0.988713116139, 0.2297109696, -0.35712877305, -9.8213403617, 0.00984425412334, 0.026309163627, -0.99744880994, 0.0131605243, 0.1351944769, -10.1635139935
4.17158484459, -0.000672482299197, -0.0612050467665, -0.988713116139, 0.2297109696, -0.35712877305, -9.8213403617, 0.00984425412334, 0.026309163627, -0.99744880994, 0.0131605243, 0.1351944769, -10.1635139935
4.18180203438, 0.00195011452385, -0.0528397555987, -0.988109797525, 0.25423740125, -0.2727817764, -9.8153583052, 0.0108666247717, 0.0269694414317, -0.997508877255, 0.0227318147, 0.14177473905, -10.1641121991
4.19213795662, 0.00195011452385, -0.0528397555987, -0.988109797525, 0.25423740125, -0.2727817764, -9.8153583052, 0.0108666247717, 0.0269694414317, -0.997508877255, 0.0227318147, 0.14177473905, -10.1641121991
4.20251703262, 0.00195011452385, -0.0528397555987, -0.988109797525, 0.25423740125, -0.2727817764, -9.8153583052, 0.0108666247717, 0.0269694414317, -0.997508877255, 0.0227318147, 0.14177473905, -10.1641121991
4.21320486069, 0.00201408030002, -0.0586539296018, -0.991548713627, 0.2548356069, -0.3314059301, -9.84945602725, 0.0110583192683, 0.0202466128747, -0.997989415775, 0.02452643165, 0.07477570625, -10.1688978443
4.22338294983, -9.67903136499e-05, -0.0569334087234, -0.98913543917, 0.23509482045, -0.31405796625, -9.82552780125, 0.0111222174338, 0.0215071432292, -0.996968271421, 0.0251246373, 0.0873380249, -10.1587283483
4.23355388641, -9.67903136499e-05, -0.0569334087234, -0.98913543917, 0.23509482045, -0.31405796625, -9.82552780125, 0.0111222174338, 0.0215071432292, -0.996968271421, 0.0251246373, 0.0873380249, -10.1587283483
4.24515485764, -0.000480584970681, -0.0587725862142, -0.988592452417, 0.23150558655, -0.3326023414, -9.8201439504, 0.0105471339441, 0.0222874715438, -0.997869281145, 0.01974078645, 0.09511469835, -10.1677014331
4.25530695915, -0.000480584970681, -0.0587725862142, -0.988592452417, 0.23150558655, -0.3326023414, -9.8201439504, 0.0105471339441, 0.0222874715438, -0.997869281145, 0.01974078645, 0.09511469835, -10.1677014331
4.26551985741, -0.00118420850857, -0.0581793031526, -0.990704067567, 0.2249253244, -0.3266202849, -9.84108114815, 0.00971645779229, 0.0222274462888, -0.99780921383, 0.011964113, 0.0945164927, -10.1671032274
4.27597284317, -0.00118420850857, -0.0581793031526, -0.990704067567, 0.2249253244, -0.3266202849, -9.84108114815, 0.00971645779229, 0.0222274462888, -0.99780921383, 0.011964113, 0.0945164927, -10.1671032274
4.28616189957, 0.000223038567209, -0.0550349029264, -0.989859421507, 0.2380858487, -0.29491538545, -9.83270626905, 0.0105471339441, 0.0212070169543, -0.995046117342, 0.01974078645, 0.08434699665, -10.1395857675
4.29660987854, 0.000223038567209, -0.0550349029264, -0.989859421507, 0.2380858487, -0.29491538545, -9.83270626905, 0.0105471339441, 0.0212070169543, -0.995046117342, 0.01974078645, 0.08434699665, -10.1395857675
4.30686688423, 0.000223038567209, -0.0550349029264, -0.989859421507, 0.2380858487, -0.29491538545, -9.83270626905, 0.0105471339441, 0.0212070169543, -0.995046117342, 0.01974078645, 0.08434699665, -10.1395857675
4.31730985641, 0.00226994340471, -0.060255793868, -0.987385815188, 0.2572284295, -0.34755748265, -9.8081798374, 0.0102276431165, 0.0216271937391, -0.998229685035, 0.0167497582, 0.0885344362, -10.1712906669
4.32745981216, 0.00226994340471, -0.060255793868, -0.987385815188, 0.2572284295, -0.34755748265, -9.8081798374, 0.0102276431165, 0.0216271937391, -0.998229685035, 0.0167497582, 0.0885344362, -10.1712906669
4.3376698494, 0.00143838831448, -0.0559248275187, -0.990523071983, 0.24945175605, -0.3038884702, -9.8392865312, 0.0107388284407, 0.0223474967988, -0.996187396326, 0.0215354034, 0.095712904, -10.1509516748
4.34812498093, -0.000800413851541, -0.0597811674188, -0.991186722458, 0.2285145583, -0.34277183745, -9.84586679335, 0.00888578164046, 0.0249285827626, -0.996667934846, 0.00418743955, 0.12143574695, -10.15573732
4.35830283165, -0.000800413851541, -0.0597811674188, -0.991186722458, 0.2285145583, -0.34277183745, -9.84586679335, 0.00888578164046, 0.0249285827626, -0.996667934846, 0.00418743955, 0.12143574695, -10.15573732
4.36867284775, 3.11412386938e-05, -0.0571113936418, -0.991307386181, 0.23629123175, -0.3158525832, -9.84706320465, 0.0100359486199, 0.0198264360899, -0.995887059751, 0.01495514125, 0.0705882667, -10.1479606466
4.37887787819, 3.11412386938e-05, -0.0571113936418, -0.991307386181, 0.23629123175, -0.3158525832, -9.84706320465, 0.0100359486199, 0.0198264360899, -0.995887059751, 0.01495514125, 0.0705882667, -10.1479606466
4.38918185234, -0.000480584970681, -0.0559841558249, -0.990523071983, 0.23150558655, -0.30448667585, -9.8392865312, 0.0121445880822, 0.0225875978187, -0.997268607995, 0.0346959277, 0.0981057266, -10.1617193765
4.39931988716, -0.000480584970681, -0.0559841558249, -0.990523071983, 0.23150558655, -0.30448667585, -9.8392865312, 0.0121445880822, 0.0225875978187, -0.997268607995, 0.0346959277, 0.0981057266, -10.1617193765
4.409471035, -0.000480584970681, -0.0596625108065, -0.99124705432, 0.23150558655, -0.34157542615, -9.846464999, 0.00984425412334, 0.0230077746035, -0.996788069476, 0.0131605243, 0.10229316615, -10.1569337313
4.41968393326, -0.000480584970681, -0.0596625108065, -0.99124705432, 0.23150558655, -0.34157542615, -9.846464999, 0.00984425412334, 0.0230077746035, -0.996788069476, 0.0131605243, 0.10229316615, -10.1569337313
4.42994904518, -0.000480584970681, -0.0596625108065, -0.99124705432, 0.23150558655, -0.34157542615, -9.846464999, 0.00984425412334, 0.0230077746035, -0.996788069476, 0.0131605243, 0.10229316615, -10.1569337313
4.44022202492, -0.0011202427324, -0.0600778089496, -0.992996678301, 0.22552353005, -0.3457628657, -9.86381296285, 0.0105471339441, 0.0201265623648, -0.996667934846, 0.01974078645, 0.07357929495, -10.15573732
4.45050501823, -0.0011202427324, -0.0600778089496, -0.992996678301, 0.22552353005, -0.3457628657, -9.86381296285, 0.0105471339441, 0.0201265623648, -0.996667934846, 0.01974078645, 0.07357929495, -10.15573732
4.46079397202, -0.000416619194509, -0.0575266917849, -0.990704067567, 0.2321037922, -0.32004002275, -9.84108114815, 0.0104832357786, 0.0252287090375, -0.997869281145, 0.0191425808, 0.1244267752, -10.1677014331
4.47431182861, 0.000414935895725, -0.0509412498018, -0.990885063151, 0.23988046565, -0.2536391956, -9.8428757651, 0.00984425412334, 0.0213270674643, -0.996667934846, 0.0131605243, 0.08554340795, -10.15573732
4.48458981514, 0.000414935895725, -0.0509412498018, -0.990885063151, 0.23988046565, -0.2536391956, -9.8428757651, 0.00984425412334, 0.0213270674643, -0.996667934846, 0.0131605243, 0.08554340795, -10.15573732
4.49489593506, 0.00226994340471, -0.0569927370295, -0.99082473129, 0.2572284295, -0.3146561719, -9.84227755945, 0.0104832357786, 0.0176655269109, -0.998830358184, 0.0191425808, 0.0490528633, -10.1772727234
4.50549387932, 0.00226994340471, -0.0569927370295, -0.99082473129, 0.2572284295, -0.3146561719, -9.84227755945, 0.0104832357786, 0.0176655269109, -0.998830358184, 0.0191425808, 0.0490528633, -10.1772727234
4.5156788826, -0.00137610583709, -0.0605524353988, -0.98998008523, 0.22313070745, -0.3505485109, -9.83390268035, 0.011633402758, 0.0212070169543, -0.994145107618, 0.0299102825, 0.08434699665, -10.1306126828
4.52584981918, -0.00137610583709, -0.0605524353988, -0.98998008523, 0.22313070745, -0.3505485109, -9.83390268035, 0.011633402758, 0.0212070169543, -0.994145107618, 0.0299102825, 0.08434699665, -10.1306126828
4.53603982925, 0.000606833224241, -0.0612643750726, -0.990221412675, 0.2416750826, -0.3577269787, -9.83629550295, 0.014061533048, 0.0209068906794, -0.994925982712, 0.0526420972, 0.0813559684, -10.1383893562
4.54622602463, 0.000606833224241, -0.0612643750726, -0.990221412675, 0.2416750826, -0.3577269787, -9.83629550295, 0.014061533048, 0.0209068906794, -0.994925982712, 0.0526420972, 0.0813559684, -10.1383893562
4.55637288094, -0.000736448075369, -0.0566367671926, -0.991186722458, 0.22911276395, -0.311066938, -9.84586679335, 0.0118250972546, 0.0254688100574, -0.997208540681, 0.03170489945, 0.1268195978, -10.1611211709
4.56652402878, -0.000736448075369, -0.0566367671926, -0.991186722458, 0.22911276395, -0.311066938, -9.84586679335, 0.0118250972546, 0.0254688100574, -0.997208540681, 0.03170489945, 0.1268195978, -10.1611211709
4.57691001892, -0.000864379627713, -0.0583572880711, -0.991005726874, 0.22791635265, -0.32841490185, -9.8440721764, 0.0126557734064, 0.0209068906794, -0.996007194381, 0.0394815729, 0.0813559684, -10.1491570579
4.58705282211, -0.000864379627713, -0.0583572880711, -0.991005726874, 0.22791635265, -0.32841490185, -9.8440721764, 0.0126557734064, 0.0209068906794, -0.996007194381, 0.0394815729, 0.0813559684, -10.1491570579
4.59719896317, -3.28245374781e-05, -0.0570520653357, -0.988833779862, 0.2356930261, -0.31525437755, -9.822536773, 0.0105471339441, 0.0187459815004, -0.994085040303, 0.01974078645, 0.059820565, -10.1300144771
4.60734796524, -3.28245374781e-05, -0.0570520653357, -0.988833779862, 0.2356930261, -0.31525437755, -9.822536773, 0.0105471339441, 0.0187459815004, -0.994085040303, 0.01974078645, 0.059820565, -10.1300144771
4.61754584312, -3.28245374781e-05, -0.0570520653357, -0.988833779862, 0.2356930261, -0.31525437755, -9.822536773, 0.0105471339441, 0.0187459815004, -0.994085040303, 0.01974078645, 0.059820565, -10.1300144771
4.62773799896, 0.000414935895725, -0.055272216151, -0.990221412675, 0.23988046565, -0.29730820805, -9.83629550295, 0.0131669587307, 0.0270294666867, -0.993844771043, 0.0442672181, 0.1423729447, -10.1276216545
4.63791799545, 0.000414935895725, -0.055272216151, -0.990221412675, 0.23988046565, -0.29730820805, -9.83629550295, 0.0131669587307, 0.0270294666867, -0.993844771043, 0.0442672181, 0.1423729447, -10.1276216545
4.64807295799, 0.00111855943362, -0.056399453968, -0.988833779862, 0.2464607278, -0.3086741154, -9.822536773, 0.0129113660686, 0.0236080271532, -0.99840988698, 0.0418743955, 0.10827522265, -10.1730852839
4.65851283073, -0.00227162670349, -0.0588319145203, -0.994746302283, 0.2464607278, -0.3086741154, -9.822536773, 0.0111861155994, 0.0235480018983, -0.996848136791, 0.02572284295, 0.107677017, -10.157531937
4.66873383522, -0.00227162670349, -0.0588319145203, -0.994746302283, 0.21475582835, -0.33320054705, -9.8811609267, 0.0111861155994, 0.0235480018983, -0.996848136791, 0.02572284295, 0.107677017, -10.157531937
4.67895793915, -0.00227162670349, -0.0588319145203, -0.994746302283, 0.21475582835, -0.33320054705, -9.8811609267, 0.0111861155994, 0.0235480018983, -0.996848136791, 0.02572284295, 0.107677017, -10.157531937
4.68924999237, 9.51070148657e-05, -0.0581199748465, -0.991005726874, 0.2368894374, -0.32602207925, -9.8440721764, 0.012847467903, 0.0149643904371, -0.996187396326, 0.04127618985, 0.02213360905, -10.1509516748
4.69940495491, 9.51070148657e-05, -0.0581199748465, -0.991005726874, 0.2368894374, -0.32602207925, -9.8440721764, 0.012847467903, 0.0149643904371, -0.996187396326, 0.04127618985, 0.02213360905, -10.1509516748
4.70957803726, -9.67903136499e-05, -0.056399453968, -0.990523071983, 0.23509482045, -0.3086741154, -9.8392865312, 0.00952476329571, 0.0199464865999, -0.996968271421, 0.01016949605, 0.071784678, -10.1587283483
4.7197329998, -9.67903136499e-05, -0.056399453968, -0.990523071983, 0.23509482045, -0.3086741154, -9.8392865312, 0.00952476329571, 0.0199464865999, -0.996968271421, 0.01016949605, 0.071784678, -10.1587283483
4.72994303703, -0.000864379627713, -0.0581793031526, -0.991005726874, 0.22791635265, -0.3266202849, -9.8440721764, 0.00946086513019, 0.021987345269, -0.998590088925, 0.0095712904, 0.0921236701, -10.1748799008
4.7410800457, -0.000864379627713, -0.0581793031526, -0.991005726874, 0.22791635265, -0.3266202849, -9.8440721764, 0.00946086513019, 0.021987345269, -0.998590088925, 0.0095712904, 0.0921236701, -10.1748799008
4.75128602982, 0.000350970119553, -0.0539076651095, -0.991066058735, 0.23928226, -0.2835494781, -9.84467038205, 0.0107388284407, 0.0233679261333, -0.996607867531, 0.0215354034, 0.10588240005, -10.1551391144
4.76153898239, 0.000350970119553, -0.0539076651095, -0.991066058735, 0.23928226, -0.2835494781, -9.84467038205, 0.0107388284407, 0.0233679261333, -0.996607867531, 0.0215354034, 0.10588240005, -10.1551391144
4.77206683159, 0.00310149849494, -0.063696835625, -0.993117342024, 0.26500510295, -0.38225341035, -9.86500937415, 0.0103554394475, 0.0203066381297, -0.996788069476, 0.0179461695, 0.0753739119, -10.1569337313
4.78229403496, 0.00310149849494, -0.063696835625, -0.993117342024, 0.26500510295, -0.38225341035, -9.86500937415, 0.0103554394475, 0.0203066381297, -0.996788069476, 0.0179461695, 0.0753739119, -10.1569337313
4.79248785973, 0.000734764776585, -0.0587725862142, -0.989859421507, 0.2428714939, -0.3326023414, -9.83270626905, 0.0124001807443, 0.0248685575077, -0.993664569098, 0.0370887503, 0.1208375413, -10.1258270375
4.80271196365, 0.000734764776585, -0.0587725862142, -0.989859421507, 0.2428714939, -0.3326023414, -9.83270626905, 0.0124001807443, 0.0248685575077, -0.993664569098, 0.0370887503, 0.1208375413, -10.1258270375
4.81293296814, 0.00284563539026, -0.0565774388864, -0.990885063151, 0.26261228035, -0.31046873235, -9.8428757651, 0.0108666247717, 0.0222274462888, -0.997388742625, 0.0227318147, 0.0945164927, -10.1629157879
4.82314801216, 0.00284563539026, -0.0565774388864, -0.990885063151, 0.26261228035, -0.31046873235, -9.8428757651, 0.0108666247717, 0.0222274462888, -0.997388742625, 0.0227318147, 0.0945164927, -10.1629157879
4.83349680901, -0.000800413851541, -0.0560434841311, -0.988109797525, 0.2285145583, -0.3050848815, -9.8153583052, 0.0115695045925, 0.0243883554679, -0.993184030578, 0.02931207685, 0.1160518961, -10.1210413923
4.84369301796, -0.000800413851541, -0.0560434841311, -0.988109797525, 0.2285145583, -0.3050848815, -9.8153583052, 0.0115695045925, 0.0243883554679, -0.993184030578, 0.02931207685, 0.1160518961, -10.1210413923
4.85385489464, -0.000800413851541, -0.0560434841311, -0.988109797525, 0.2285145583, -0.3050848815, -9.8153583052, 0.0115695045925, 0.0243883554679, -0.993184030578, 0.02931207685, 0.1160518961, -10.1210413923
4.86402392387, -0.000352653418337, -0.0574673634788, -0.991186722458, 0.23270199785, -0.3194418171, -9.84586679335, 0.0108666247717, 0.0230077746035, -0.994685713452, 0.0227318147, 0.10229316615, -10.1359965336
4.87417888641, 0.000478901671897, -0.0550349029264, -0.988109797525, 0.2404786713, -0.29491538545, -9.8153583052, 0.00958866146124, 0.0248685575077, -0.996908204106, 0.0107677017, 0.1208375413, -10.1581301426
4.88480401039, 0.000478901671897, -0.0550349029264, -0.988109797525, 0.2404786713, -0.29491538545, -9.8153583052, 0.00958866146124, 0.0248685575077, -0.996908204106, 0.0107677017, 0.1208375413, -10.1581301426
4.89495897293, 0.0025258065094, -0.0546196047833, -0.989195771031, 0.2596212521, -0.2907279459, -9.8261260069, 0.0109944211028, 0.0222874715438, -0.996187396326, 0.023928226, 0.09511469835, -10.1509516748
4.90508699417, 0.0025258065094, -0.0546196047833, -0.989195771031, 0.2596212521, -0.2907279459, -9.8261260069, 0.0109944211028, 0.0222874715438, -0.996187396326, 0.023928226, 0.09511469835, -10.1509516748
4.91523694992, 0.0025258065094, -0.0546196047833, -0.989195771031, 0.2596212521, -0.2907279459, -9.8261260069, 0.0109944211028, 0.0222874715438, -0.996187396326, 0.023928226, 0.09511469835, -10.1509516748
4.92547893524, -0.000288687642166, -0.0585352729895, -0.990583403844, 0.2333002035, -0.3302095188, -9.83988473685, 0.0138698385514, 0.0203066381297, -0.998590088925, 0.05084748025, 0.0753739119, -10.1748799008
4.93598604202, 0.000414935895725, -0.0592472126634, -0.991367718043, 0.2333002035, -0.3302095188, -9.83988473685, 0.00971645779229, 0.0199464865999, -0.996127329011, 0.05084748025, 0.0753739119, -10.1748799008
4.94617390633, 0.000414935895725, -0.0592472126634, -0.991367718043, 0.23988046565, -0.3373879866, -9.8476614103, 0.00971645779229, 0.0199464865999, -0.996127329011, 0.011964113, 0.071784678, -10.1503534692
4.95677304268, -0.00118420850857, -0.0564587822741, -0.991126390597, 0.2249253244, -0.30927232105, -9.8452685877, 0.0118889954201, 0.0237280776632, -0.994205174933, 0.0323031051, 0.10947163395, -10.1312108884
4.96713685989, -0.00118420850857, -0.0564587822741, -0.991126390597, 0.2249253244, -0.30927232105, -9.8452685877, 0.0118889954201, 0.0237280776632, -0.994205174933, 0.0323031051, 0.10947163395, -10.1312108884
4.97733402252, -0.00118420850857, -0.0564587822741, -0.991126390597, 0.2249253244, -0.30927232105, -9.8452685877, 0.0118889954201, 0.0237280776632, -0.994205174933, 0.0323031051, 0.10947163395, -10.1312108884
4.98775291443, -0.000864379627713, -0.059484525888, -0.989316434754, 0.22791635265, -0.3397808092, -9.8273224182, 0.011505606427, 0.0207868401695, -0.994625646137, 0.0287138712, 0.0801595571, -10.1353983279
4.99807286263, -0.000864379627713, -0.059484525888, -0.989316434754, 0.22791635265, -0.3397808092, -9.8273224182, 0.011505606427, 0.0207868401695, -0.994625646137, 0.0287138712, 0.0801595571, -10.1353983279
5.00820398331, 0.00131045676213, -0.0517718460879, -0.992272695964, 0.24825534475, -0.2620140747, -9.85663449505, 0.0138059403859, 0.0186859562454, -0.993123963263, 0.0502492746, 0.05922235935, -10.1204431867
5.01839804649, 0.00131045676213, -0.0517718460879, -0.992272695964, 0.24825534475, -0.2620140747, -9.85663449505, 0.0138059403859, 0.0186859562454, -0.993123963263, 0.0502492746, 0.05922235935, -10.1204431867
5.02855992317, 0.000990627881272, -0.0608490769296, -0.991066058735, 0.2452643165, -0.35353953915, -9.84467038205, 0.0102276431165, 0.0216271937391, -0.995526655862, 0.0167497582, 0.0885344362, -10.1443714127
5.03871703148, 0.000990627881272, -0.0608490769296, -0.991066058735, 0.2452643165, -0.35353953915, -9.84467038205, 0.0102276431165, 0.0216271937391, -0.995526655862, 0.0167497582, 0.0885344362, -10.1443714127
5.04883885384, 0.000990627881272, -0.0608490769296, -0.991066058735, 0.2452643165, -0.35353953915, -9.84467038205, 0.0102276431165, 0.0216271937391, -0.995526655862, 0.0167497582, 0.0885344362, -10.1443714127
5.05902791023, 0.00150235409065, -0.0555688576818, -0.989799089645, 0.2500499617, -0.3002992363, -9.8321080634, 0.0106110321096, 0.0233079008784, -0.996367598271, 0.0203389921, 0.1052841944, -10.1527462918
5.06929302216, 0.00150235409065, -0.0555688576818, -0.989799089645, 0.2500499617, -0.3002992363, -9.8321080634, 0.0106110321096, 0.0233079008784, -0.996367598271, 0.0203389921, 0.1052841944, -10.1527462918
5.07952189445, 0.00188614874768, -0.0581793031526, -0.991307386181, 0.2536391956, -0.3266202849, -9.84706320465, 0.0137420422204, 0.0156246682418, -0.992943761318, 0.04965106895, 0.0287138712, -10.1186485698
5.08973193169, 0.00188614874768, -0.0581793031526, -0.991307386181, 0.2536391956, -0.3266202849, -9.84706320465, 0.0137420422204, 0.0156246682418, -0.992943761318, 0.04965106895, 0.0287138712, -10.1186485698
5.09989094734, 0.00188614874768, -0.0518905027002, -0.990704067567, 0.2536391956, -0.263210486, -9.84108114815, 0.00965255962676, 0.0227076483286, -0.996607867531, 0.01136590735, 0.0993021379, -10.1551391144
5.11003804207, 0.00188614874768, -0.0518905027002, -0.990704067567, 0.2536391956, -0.263210486, -9.84108114815, 0.00965255962676, 0.0227076483286, -0.996607867531, 0.01136590735, 0.0993021379, -10.1551391144
5.12025594711, 0.00195011452385, -0.0546789330895, -0.989738757784, 0.25423740125, -0.29132615155, -9.83150985775, 0.0117611990891, 0.0194662845601, -0.993964905673, 0.0311066938, 0.0669990328, -10.1288180658
5.13056993484, 0.00195011452385, -0.0546789330895, -0.989738757784, 0.25423740125, -0.29132615155, -9.83150985775, 0.0117611990891, 0.0194662845601, -0.993964905673, 0.0311066938, 0.0669990328, -10.1288180658
5.14077186584, 0.00118252520979, -0.055628185988, -0.988833779862, 0.24705893345, -0.30089744195, -9.822536773, 0.00997205045439, 0.0221073957789, -0.995766925121, 0.0143569356, 0.0933200814, -10.1467642353
5.15304684639, 0.00118252520979, -0.055628185988, -0.988833779862, 0.24705893345, -0.30089744195, -9.822536773, 0.00997205045439, 0.0221073957789, -0.995766925121, 0.0143569356, 0.0933200814, -10.1467642353
5.16323399544, -0.000288687642166, -0.0581793031526, -0.99040240826, 0.2333002035, -0.3266202849, -9.8380901199, 0.0131669587307, 0.0225275725637, -0.997268607995, 0.0442672181, 0.09750752095, -10.1617193765
5.17340493202, -0.00105627695623, -0.0582979597649, -0.988773448001, 0.2261217357, -0.3278166962, -9.82193856735, 0.00990815228886, 0.021867294759, -0.996007194381, 0.01375872995, 0.0909272588, -10.1491570579
5.18352794647, -0.00105627695623, -0.0582979597649, -0.988773448001, 0.2261217357, -0.3278166962, -9.82193856735, 0.00990815228886, 0.021867294759, -0.996007194381, 0.01375872995, 0.0909272588, -10.1491570579
5.19366788864, 0.000542867448069, -0.0507039365772, -0.990523071983, 0.24107687695, -0.251246373, -9.8392865312, 0.00997205045439, 0.0231878503684, -0.996788069476, 0.01375872995, 0.0909272588, -10.1491570579
5.20387101173, 0.000542867448069, -0.0507039365772, -0.990523071983, 0.24107687695, -0.251246373, -9.8392865312, 0.00997205045439, 0.0231878503684, -0.996788069476, 0.0143569356, 0.1040877831, -10.1569337313
5.21404886246, -0.00201576359881, -0.055272216151, -0.992815682717, 0.21714865095, -0.29730820805, -9.8620183459, 0.0119528935857, 0.0211469916993, -0.9976890792, 0.03290131075, 0.083748791, -10.1659068161
5.22439694405, -0.00201576359881, -0.055272216151, -0.992815682717, 0.21714865095, -0.29730820805, -9.8620183459, 0.0119528935857, 0.0211469916993, -0.9976890792, 0.03290131075, 0.083748791, -10.1659068161
5.2347099781, -0.00201576359881, -0.055272216151, -0.992815682717, 0.21714865095, -0.29730820805, -9.8620183459, 0.0119528935857, 0.0211469916993, -0.9976890792, 0.03290131075, 0.083748791, -10.1659068161
5.24538397789, 0.000287004343381, -0.0580606465403, -0.989618094061, 0.23868405435, -0.3254238736, -9.83031344645, 0.0113778100959, 0.0225275725637, -0.995286386602, 0.0275174599, 0.09750752095, -10.1419785901
5.25586795807, -0.00188783204646, -0.0568740804172, -0.989678425922, 0.23868405435, -0.3254238736, -9.83031344645, 0.00952476329571, 0.0208468654245, -0.99756894457, 0.0275174599, 0.09750752095, -10.1419785901
5.26625585556, -0.00188783204646, -0.0568740804172, -0.989678425922, 0.21834506225, -0.3134597606, -9.8309116521, 0.00952476329571, 0.0208468654245, -0.99756894457, 0.01016949605, 0.08075776275, -10.1647104048
5.27671098709, 0.00169425141916, -0.0574080351726, -0.990161080814, 0.25184457865, -0.31884361145, -9.8356972973, 0.0114417082615, 0.0201265623648, -0.993604501783, 0.02811566555, 0.07357929495, -10.1252288319
5.28688192368, 0.00169425141916, -0.0574080351726, -0.990161080814, 0.25184457865, -0.31884361145, -9.8356972973, 0.0114417082615, 0.0201265623648, -0.993604501783, 0.02811566555, 0.07357929495, -10.1252288319
5.2970468998, 0.00118252520979, -0.0542636349464, -0.990764399428, 0.24705893345, -0.287138712, -9.8416793538, 0.0123362825788, 0.0233679261333, -0.993304165208, 0.03649054465, 0.10588240005, -10.1222378037
5.30719399452, 0.00118252520979, -0.0542636349464, -0.990764399428, 0.24705893345, -0.287138712, -9.8416793538, 0.0123362825788, 0.0233679261333, -0.993304165208, 0.03649054465, 0.10588240005, -10.1222378037
5.31743502617, -0.0011202427324, -0.0570520653357, -0.990161080814, 0.24705893345, -0.287138712, -9.8416793538, 0.0123362825788, 0.0233679261333, -0.993304165208, 0.03649054465, 0.10588240005, -10.1222378037
5.32758998871, -0.0011202427324, -0.0570520653357, -0.990161080814, 0.22552353005, -0.31525437755, -9.8356972973, 0.0104193376131, 0.0203666633847, -0.994925982712, 0.01854437515, 0.07597211755, -10.1383893562
5.33792281151, 3.11412386938e-05, -0.0630442242573, -0.990040417091, 0.23629123175, -0.3756731482, -9.834500886, 0.0129113660686, 0.0198864613449, -0.994925982712, 0.01854437515, 0.07597211755, -10.1383893562
5.34808683395, 3.11412386938e-05, -0.0630442242573, -0.990040417091, 0.23629123175, -0.3756731482, -9.834500886, 0.0129113660686, 0.0198864613449, -0.994925982712, 0.0418743955, 0.07118647235, -10.1383893562
5.35823488235, 3.11412386938e-05, -0.0630442242573, -0.990040417091, 0.23629123175, -0.3756731482, -9.834500886, 0.0129113660686, 0.0198864613449, -0.994925982712, 0.0418743955, 0.07118647235, -10.1383893562
5.36863398552, 0.00150235409065, -0.0514752045572, -0.988592452417, 0.2500499617, -0.25902304645, -9.8201439504, 0.0113139119304, 0.0193462340501, -0.998830358184, 0.02691925425, 0.0658026215, -10.1772727234
5.37882089615, -0.00246352403201, -0.0547975897018, -0.988411456832, 0.2129612114, -0.29252256285, -9.81834933345, 0.0106749302752, 0.0225875978187, -0.99780921383, 0.02093719775, 0.0981057266, -10.1671032274
5.38992881775, -0.00246352403201, -0.0547975897018, -0.988411456832, 0.2129612114, -0.29252256285, -9.81834933345, 0.0106749302752, 0.0225875978187, -0.99780921383, 0.02093719775, 0.0981057266, -10.1671032274
5.40008592606, 0.000734764776585, -0.056399453968, -0.990161080814, 0.2428714939, -0.3086741154, -9.8356972973, 0.0116973009236, 0.0234279513883, -0.995947127066, 0.03050848815, 0.1064806057, -10.1485588522
5.41030502319, 0.000734764776585, -0.056399453968, -0.990161080814, 0.2428714939, -0.3086741154, -9.8356972973, 0.0116973009236, 0.0234279513883, -0.995947127066, 0.03050848815, 0.1064806057, -10.1485588522
5.42112994194, -0.000992311180056, -0.0612050467665, -0.990040417091, 0.22671994135, -0.35712877305, -9.834500886, 0.0105471339441, 0.024028203938, -0.997268607995, 0.01974078645, 0.1124626622, -10.1617193765
5.43127298355, -0.000992311180056, -0.0612050467665, -0.990040417091, 0.22671994135, -0.35712877305, -9.834500886, 0.0105471339441, 0.024028203938, -0.997268607995, 0.01974078645, 0.1124626622, -10.1617193765
5.44152784348, -3.28245374781e-05, -0.0535516952726, -0.989859421507, 0.2356930261, -0.2799602442, -9.83270626905, 0.0102276431165, 0.021987345269, -0.994986050027, 0.0167497582, 0.0921236701, -10.1389875618
5.45189189911, -3.28245374781e-05, -0.0535516952726, -0.989859421507, 0.2356930261, -0.2799602442, -9.83270626905, 0.0102276431165, 0.021987345269, -0.994986050027, 0.0167497582, 0.0921236701, -10.1389875618
5.46205496788, -0.000672482299197, -0.0701636209958, -0.99082473129, 0.2297109696, -0.4474578262, -9.84227755945, 0.0112500137649, 0.0225875978187, -0.994085040303, 0.0263210486, 0.0981057266, -10.1300144771
5.47224402428, -0.000672482299197, -0.0701636209958, -0.99082473129, 0.2297109696, -0.4474578262, -9.84227755945, 0.0112500137649, 0.0225875978187, -0.994085040303, 0.0263210486, 0.0981057266, -10.1300144771
5.4824359417, 0.00175821719533, -0.0421013321848, -0.990281744537, 0.2524427843, -0.16450655375, -9.8368937086, 0.0108027266062, 0.0267893656668, -0.996728002161, 0.02213360905, 0.1399801221, -10.1563355257
5.49278593063, 0.00175821719533, -0.0421013321848, -0.990281744537, 0.2524427843, -0.16450655375, -9.8368937086, 0.0108027266062, 0.0267893656668, -0.996728002161, 0.02213360905, 0.1399801221, -10.1563355257
5.5031709671, -0.000736448075369, -0.0530177405172, -0.990523071983, 0.22911276395, -0.27457639335, -9.8392865312, 0.00933306879914, 0.0245684312328, -0.99780921383, 0.0083748791, 0.11784651305, -10.1671032274
5.51340603828, 0.000414935895725, -0.0568740804172, -0.988592452417, 0.23988046565, -0.3134597606, -9.8201439504, 0.00978035595781, 0.0234279513883, -0.995226319287, 0.01256231865, 0.1064806057, -10.1413803844
5.5237288475, 0.000414935895725, -0.0568740804172, -0.988592452417, 0.23988046565, -0.3134597606, -9.8201439504, 0.00978035595781, 0.0234279513883, -0.995226319287, 0.01256231865, 0.1064806057, -10.1413803844
5.53402495384, 0.000414935895725, -0.0568740804172, -0.988592452417, 0.23988046565, -0.3134597606, -9.8201439504, 0.00978035595781, 0.0234279513883, -0.995226319287, 0.01256231865, 0.1064806057, -10.1413803844
5.54417395592, 0.00239787495705, -0.060255793868, -0.989376766615, 0.2584248408, -0.34755748265, -9.82792062385, 0.0118889954201, 0.0210869664444, -0.996848136791, 0.0323031051, 0.08315058535, -10.157531937
5.55430293083, 0.000862696328928, -0.0577640050095, -0.990462740121, 0.2440679052, -0.32243284535, -9.83868832555, 0.0111861155994, 0.0231878503684, -0.996127329011, 0.02572284295, 0.1040877831, -10.1503534692
5.56443095207, 0.000862696328928, -0.0577640050095, -0.990462740121, 0.2440679052, -0.32243284535, -9.83868832555, 0.0111861155994, 0.0231878503684, -0.996127329011, 0.02572284295, 0.1040877831, -10.1503534692
5.57457685471, -0.0011202427324, -0.0616203449096, -0.98913543917, 0.22552353005, -0.3613162126, -9.82552780125, 0.00824679998521, 0.0191061330302, -0.995646790492, -0.00179461695, 0.0634097989, -10.145567824
5.5853228569, -0.0011202427324, -0.0616203449096, -0.98913543917, 0.22552353005, -0.3613162126, -9.82552780125, 0.00824679998521, 0.0191061330302, -0.995646790492, -0.00179461695, 0.0634097989, -10.145567824
5.59556484222, -0.0011202427324, -0.0616203449096, -0.98913543917, 0.22552353005, -0.3613162126, -9.82552780125, 0.00824679998521, 0.0191061330302, -0.995646790492, -0.00179461695, 0.0634097989, -10.145567824
5.60573101044, 0.000478901671897, -0.0549162463141, -0.987687474495, 0.2404786713, -0.29371897415, -9.81117086565, 0.0106110321096, 0.0231878503684, -0.997388742625, 0.0203389921, 0.1040877831, -10.1629157879
5.61586999893, -0.00124817428474, -0.0586539296018, -0.988411456832, 0.22432711875, -0.3314059301, -9.81834933345, 0.0120806899167, 0.0236080271532, -0.998349819665, 0.03409772205, 0.10827522265, -10.1724870783
5.62605381012, -0.00124817428474, -0.0586539296018, -0.988411456832, 0.22432711875, -0.3314059301, -9.81834933345, 0.0120806899167, 0.0236080271532, -0.998349819665, 0.03409772205, 0.10827522265, -10.1724870783
5.63642001152, -0.000160756089822, -0.0527804272926, -0.99040240826, 0.2344966148, -0.27218357075, -9.8380901199, 0.00997205045439, 0.0215671684841, -0.997088406051, 0.0143569356, 0.08793623055, -10.1599247596
5.64656686783, -0.000160756089822, -0.0527804272926, -0.99040240826, 0.2344966148, -0.27218357075, -9.8380901199, 0.00997205045439, 0.0215671684841, -0.997088406051, 0.0143569356, 0.08793623055, -10.1599247596
5.65675091743, -0.000160756089822, -0.0527804272926, -0.99040240826, 0.2344966148, -0.27218357075, -9.8380901199, 0.00997205045439, 0.0215671684841, -0.997088406051, 0.0143569356, 0.08793623055, -10.1599247596
5.66691398621, 0.000159072791038, -0.0583572880711, -0.989256102892, 0.23748764305, -0.32841490185, -9.82672421255, 0.0124001807443, 0.024148254448, -0.99828975235, 0.0370887503, 0.1136590735, -10.1718888726
5.67706990242, 9.51070148657e-05, -0.041804690654, -0.990583403844, 0.2368894374, -0.1615155255, -9.83988473685, 0.0109305229373, 0.0254087848024, -0.996908204106, 0.02333002035, 0.12622139215, -10.1581301426
5.68719601631, 9.51070148657e-05, -0.041804690654, -0.990583403844, 0.2368894374, -0.1615155255, -9.83988473685, 0.0109305229373, 0.0254087848024, -0.996908204106, 0.02333002035, 0.12622139215, -10.1581301426
5.69752001762, 0.000990627881272, -0.0596031825003, -0.988351124971, 0.2452643165, -0.3409772205, -9.8177511278, 0.011505606427, 0.0233679261333, -0.996307530956, 0.0287138712, 0.10588240005, -10.1521480861
5.70775294304, 0.000990627881272, -0.0596031825003, -0.988351124971, 0.2452643165, -0.3409772205, -9.8177511278, 0.011505606427, 0.0233679261333, -0.996307530956, 0.0287138712, 0.10588240005, -10.1521480861
5.71795082092, 0.000990627881272, -0.0596031825003, -0.988351124971, 0.2452643165, -0.3409772205, -9.8177511278, 0.011505606427, 0.0233679261333, -0.996307530956, 0.0287138712, 0.10588240005, -10.1521480861
5.72822093964, 0.0009266621051, -0.0573487068664, -0.992272695964, 0.24466611085, -0.3182454058, -9.85663449505, 0.0127835697375, 0.0228877240936, -0.996667934846, 0.0406779842, 0.10109675485, -10.15573732
5.73874187469, 0.000798730552756, -0.0524244574556, -0.990462740121, 0.24346969955, -0.26859433685, -9.83868832555, 0.0114417082615, 0.0233079008784, -0.992703492059, 0.02811566555, 0.1052841944, -10.1162557471
5.74889588356, 0.000798730552756, -0.0524244574556, -0.990462740121, 0.24346969955, -0.26859433685, -9.83868832555, 0.0114417082615, 0.0233079008784, -0.992703492059, 0.02811566555, 0.1052841944, -10.1162557471
5.75904798508, 9.51070148657e-05, -0.0559841558249, -0.991729709211, 0.2368894374, -0.30448667585, -9.8512506442, 0.00907747613703, 0.0222874715438, -0.999130694759, 0.0059820565, 0.09511469835, -10.1802637517
5.76926994324, 9.51070148657e-05, -0.0559841558249, -0.991729709211, 0.2368894374, -0.30448667585, -9.8512506442, 0.00907747613703, 0.0222874715438, -0.999130694759, 0.0059820565, 0.09511469835, -10.1802637517
5.77946186066, 9.51070148657e-05, -0.0583572880711, -0.990704067567, 0.2368894374, -0.32841490185, -9.84108114815, 0.0100998467854, 0.0275696939815, -0.995947127066, 0.0155533469, 0.14775679555, -10.1485588522
5.78971982002, 9.51070148657e-05, -0.0583572880711, -0.990704067567, 0.2368894374, -0.32841490185, -9.84108114815, 0.0100998467854, 0.0275696939815, -0.995947127066, 0.0155533469, 0.14775679555, -10.1485588522
5.80042695999, 0.000798730552756, -0.0590692277449, -0.99166937735, 0.2368894374, -0.32841490185, -9.84108114815, 0.0109305229373, 0.0246884817427, -0.995706857807, 0.0155533469, 0.14775679555, -10.1485588522
5.81059503555, 0.000798730552756, -0.0590692277449, -0.99166937735, 0.24346969955, -0.33559336965, -9.85065243855, 0.0109305229373, 0.0246884817427, -0.995706857807, 0.02333002035, 0.11904292435, -10.1461660296
5.82092690468, -0.000544550746853, -0.059484525888, -0.988894111724, 0.2309073809, -0.3397808092, -9.82313497865, 0.0124640789099, 0.0209068906794, -0.9976890792, 0.03768695595, 0.0813559684, -10.1659068161
5.83107304573, -0.000544550746853, -0.059484525888, -0.988894111724, 0.2309073809, -0.3397808092, -9.82313497865, 0.0124640789099, 0.0209068906794, -0.9976890792, 0.03768695595, 0.0813559684, -10.1659068161
5.84123682976, -0.000544550746853, -0.059484525888, -0.988894111724, 0.2309073809, -0.3397808092, -9.82313497865, 0.0124640789099, 0.0209068906794, -0.9976890792, 0.03768695595, 0.0813559684, -10.1659068161
5.85140800476, 0.000798730552756, -0.0546789330895, -0.989799089645, 0.24346969955, -0.29132615155, -9.8321080634, 0.0104832357786, 0.024028203938, -0.994565578822, 0.0191425808, 0.1124626622, -10.1348001223
5.86158299446, -0.000352653418337, -0.0565181105803, -0.991428049904, 0.23270199785, -0.3098705267, -9.84825961595, 0.00926917063361, 0.0228276988386, -0.994145107618, 0.00777667345, 0.1004985492, -10.1306126828
5.87173295021, -0.000352653418337, -0.0565181105803, -0.991428049904, 0.23270199785, -0.3098705267, -9.84825961595, 0.00926917063361, 0.0228276988386, -0.994145107618, 0.00777667345, 0.1004985492, -10.1306126828
5.88212394714, -0.000288687642166, -0.0584759446834, -0.98913543917, 0.23270199785, -0.3098705267, -9.84825961595, 0.00952476329571, 0.0215671684841, -0.996187396326, 0.00777667345, 0.1004985492, -10.1306126828
5.89252996445, -0.000288687642166, -0.0584759446834, -0.98913543917, 0.2333002035, -0.32961131315, -9.82552780125, 0.00952476329571, 0.0215671684841, -0.996187396326, 0.01016949605, 0.08793623055, -10.1509516748
5.90270590782, -0.000544550746853, -0.0569927370295, -0.991066058735, 0.2309073809, -0.3146561719, -9.84467038205, 0.0124640789099, 0.0247485069977, -0.99853002161, 0.03768695595, 0.11964113, -10.1742816952
5.91286897659, -0.000544550746853, -0.0569927370295, -0.991066058735, 0.2309073809, -0.3146561719, -9.84467038205, 0.0124640789099, 0.0247485069977, -0.99853002161, 0.03768695595, 0.11964113, -10.1742816952
5.92302203178, -3.28245374781e-05, -0.0577640050095, -0.991971036657, 0.2356930261, -0.32243284535, -9.8536434668, 0.010163744951, 0.0234279513883, -0.995706857807, 0.01615155255, 0.1064806057, -10.1461660296
5.93319487572, -3.28245374781e-05, -0.0577640050095, -0.991971036657, 0.2356930261, -0.32243284535, -9.8536434668, 0.010163744951, 0.0234279513883, -0.995706857807, 0.01615155255, 0.1064806057, -10.1461660296
