TIME, IMU1_acc_x, IMU1_acc_y,IMU1_acc_z, IMU1_acc_raw_x, IMU1_acc_raw_y, IMU1_acc_raw_z,IMU2_acc_x, IMU2_acc_y,IMU2_acc_z, IMU2_acc_raw_x, IMU2_acc_raw_y, IMU2_acc_raw_z2.14576721191e-06, 0.0, 0.0, 0.0, 0.0, 0.0, 0.0, 0.0, 0.0, 0.0, 0.0, 0.0, 0.0
0.0101170539856, 0.0, 0.0, 0.0, 0.0, 0.0, 0.0, 0.0, 0.0, 0.0, 0.0, 0.0, 0.0
0.0203120708466, 0.0, 0.0, 0.0, 0.0, 0.0, 0.0, 0.0, 0.0, 0.0, 0.0, 0.0, 0.0
0.0310680866241, 0.0, 0.0, 0.0, 0.0, 0.0, 0.0, 0.0, 0.0, 0.0, 0.0, 0.0, 0.0
0.0420589447021, 0.0, 0.0, 0.0, 0.0, 0.0, 0.0, 0.0, 0.0, 0.0, 0.0, 0.0, 0.0
0.0541450977325, 0.0, 0.0, 0.0, 0.17407784415, -0.3122633493, -9.8751788702, 0.0, 0.0, 0.0, 0.0107677017, 0.1351944769, -10.0283195166
0.0642809867859, 0.0, 0.0, 0.0, 0.17407784415, -0.3122633493, -9.8751788702, 0.0, 0.0, 0.0, 0.0107677017, 0.1351944769, -10.0283195166
0.074450969696, -0.0608898249033, -0.549743087602, -9.75686922518, 0.1758724611, -0.29371897415, -9.9038927414, 0.113915314436, 0.237933693375, -9.65293981523, 0.02452643165, 0.10827522265, -10.0055877019
0.0850689411163, -0.0608898249033, -0.549743087602, -9.75686922518, 0.1758724611, -0.29371897415, -9.9038927414, 0.113915314436, 0.237933693375, -9.65293981523, 0.02452643165, 0.10827522265, -10.0055877019
0.0952310562134, -0.0621673263555, -0.54951696807, -9.75644755547, 0.16570296505, -0.30329026455, -9.88534836625, 0.114174998504, 0.235276149152, -9.65419659728, 0.0323031051, 0.08793623055, -10.0522477426
0.105483055115, -0.0621673263555, -0.54951696807, -9.75644755547, 0.16570296505, -0.30329026455, -9.88534836625, 0.114174998504, 0.235276149152, -9.65419659728, 0.0323031051, 0.08793623055, -10.0522477426
0.115875959396, -0.0621673263555, -0.54951696807, -9.75644755547, 0.16570296505, -0.30329026455, -9.88534836625, 0.114174998504, 0.235276149152, -9.65419659728, 0.0323031051, 0.08793623055, -10.0522477426
0.126049995422, -0.0614991703038, -0.549313460491, -9.75837393647, 0.1830509289, -0.30329026455, -9.9086783866, 0.11397037275, 0.233825555349, -9.65297306237, 0.02811566555, 0.09750752095, -10.0283195166
0.136203050613, -0.0615873809243, -0.54814189409, -9.75922080101, 0.17647066675, -0.2931207685, -9.89970530185, 0.115977916648, 0.23087292793, -9.65257827259, 0.0490528633, 0.08075776275, -10.0354979844
0.146353006363, -0.0615873809243, -0.54814189409, -9.75922080101, 0.17647066675, -0.2931207685, -9.89970530185, 0.115977916648, 0.23087292793, -9.65257827259, 0.0490528633, 0.08075776275, -10.0354979844
0.156675100327, -0.0615873809243, -0.54814189409, -9.75922080101, 0.17647066675, -0.2931207685, -9.89970530185, 0.11672016272, 0.233745089741, -9.65546059005, 0.0490528633, 0.08075776275, -10.0354979844
0.16761302948, -0.0619175163254, -0.54906430349, -9.75933260163, 0.17407784415, -0.3134597606, -9.8931250397, 0.11672016272, 0.233745089741, -9.65546059005, 0.03888336725, 0.13698909385, -10.0683992951
0.177932977676, -0.0619175163254, -0.54906430349, -9.75933260163, 0.17407784415, -0.3134597606, -9.8931250397, 0.11672016272, 0.233745089741, -9.65546059005, 0.03888336725, 0.13698909385, -10.0683992951
0.188264131546, -0.0598325526817, -0.547801369309, -9.75748208979, 0.19680965885, -0.2919243572, -9.87338425325, 0.11757604479, 0.234565292875, -9.6549936454, 0.0406779842, 0.11904292435, -10.0372926013
0.198572158813, -0.0598325526817, -0.547801369309, -9.75748208979, 0.19680965885, -0.2919243572, -9.87338425325, 0.11757604479, 0.234565292875, -9.6549936454, 0.0406779842, 0.11904292435, -10.0372926013
0.209102153778, -0.0602754844464, -0.548990398147, -9.75711738407, 0.19680965885, -0.2919243572, -9.87338425325, 0.119035160878, 0.23324460945, -9.65622164234, 0.0406779842, 0.11904292435, -10.0372926013
0.219309091568, -0.0602754844464, -0.548990398147, -9.75711738407, 0.1746760498, -0.3158525832, -9.88654477755, 0.119035160878, 0.23324460945, -9.65622164234, 0.04725824635, 0.0981057266, -10.0540423596
0.229496002197, -0.0627427762361, -0.551339642382, -9.75466064084, 0.15493526335, -0.3290131075, -9.86500937415, 0.117405215854, 0.23529135561, -9.65550199455, 0.0191425808, 0.13100703735, -10.0354979844
0.239707946777, -0.0627427762361, -0.551339642382, -9.75466064084, 0.15493526335, -0.3290131075, -9.86500937415, 0.117405215854, 0.23529135561, -9.65550199455, 0.0191425808, 0.13100703735, -10.0354979844
0.249940156937, -0.0630827450273, -0.553977237853, -9.75321819986, 0.17288143285, -0.33439695835, -9.8727860476, 0.117566390589, 0.233074519413, -9.65679688851, 0.0346959277, 0.0897308475, -10.0552387708
0.260202169418, -0.0630827450273, -0.553977237853, -9.75321819986, 0.17288143285, -0.33439695835, -9.8727860476, 0.117566390589, 0.233074519413, -9.65679688851, 0.0346959277, 0.0897308475, -10.0552387708
0.270352125168, -0.0781827216524, -0.554490538097, -9.75333900835, 0.03170489945, -0.31525437755, -9.8871429832, 0.115832841784, 0.232432336083, -9.65843322082, 0.0167497582, 0.10348957745, -10.060024416
0.280590057373, -0.0781827216524, -0.554490538097, -9.75333900835, 0.03170489945, -0.31525437755, -9.8871429832, 0.115832841784, 0.232432336083, -9.65843322082, 0.0167497582, 0.10348957745, -10.060024416
0.290763139725, -0.0759757125316, -0.557452603138, -9.75202873061, 0.18245272325, -0.3409772205, -9.8727860476, 0.118342961004, 0.231560247337, -9.66149530106, 0.05563312545, 0.1004985492, -10.0761759686
0.30100607872, -0.0759757125316, -0.557452603138, -9.75202873061, 0.18245272325, -0.3409772205, -9.8727860476, 0.118342961004, 0.231560247337, -9.66149530106, 0.05563312545, 0.1004985492, -10.0761759686
0.311318159103, -0.0753685064571, -0.543606207505, -9.75220936081, 0.16929219895, -0.1710868159, -9.88654477755, 0.117408437989, 0.233363656459, -9.66160220468, 0.0251246373, 0.1268195978, -10.0492567143
0.321494102478, -0.0753685064571, -0.543606207505, -9.75220936081, 0.16929219895, -0.1710868159, -9.88654477755, 0.117408437989, 0.233363656459, -9.66160220468, 0.0251246373, 0.1268195978, -10.0492567143
0.331681013107, -0.0740697834624, -0.546842721245, -9.75201717664, 0.17647066675, -0.3326023414, -9.88295554365, 0.117193569297, 0.229868971431, -9.66228707763, 0.0311066938, 0.07477570625, -10.0552387708
0.341823101044, -0.0715218306328, -0.544929819187, -9.75001132893, 0.18963119105, -0.28295127245, -9.8644111685, 0.114996341004, 0.230135590397, -9.66202047375, 0.011964113, 0.10947163395, -10.0462656861
0.352370023727, -0.0715218306328, -0.544929819187, -9.75001132893, 0.18963119105, -0.28295127245, -9.8644111685, 0.114996341004, 0.230135590397, -9.66202047375, 0.011964113, 0.10947163395, -10.0462656861
0.362712144852, -0.0715218306328, -0.544929819187, -9.75001132893, 0.18963119105, -0.28295127245, -9.8644111685, 0.114996341004, 0.230135590397, -9.66202047375, 0.011964113, 0.10947163395, -10.0462656861
0.372964143753, -0.0701689699959, -0.545243168237, -9.74678706062, 0.1806581063, -0.3038884702, -9.8500542329, 0.116838667875, 0.234610929459, -9.66289898366, 0.04845465765, 0.15254244075, -10.0576315934
0.383296012878, -0.0701689699959, -0.545243168237, -9.74678706062, 0.1806581063, -0.3038884702, -9.8500542329, 0.116838667875, 0.234610929459, -9.66289898366, 0.04845465765, 0.15254244075, -10.0576315934
0.39346909523, -0.0717095996912, -0.550583513764, -9.74737360736, 0.1543370577, -0.35593236175, -9.88534836625, 0.116993877206, 0.232815084376, -9.66363077662, 0.03409772205, 0.0933200814, -10.0570333878
0.4036860466, -0.0717095996912, -0.550583513764, -9.74737360736, 0.1543370577, -0.35593236175, -9.88534836625, 0.116993877206, 0.232815084376, -9.66363077662, 0.03409772205, 0.0933200814, -10.0570333878
0.414011001587, -0.0705887079911, -0.551726895117, -9.74861100212, 0.1782652837, -0.3182454058, -9.89252683405, 0.117008325199, 0.233198865297, -9.66370073059, 0.03290131075, 0.1136590735, -10.0510513313
0.424253940582, -0.0705887079911, -0.551726895117, -9.74861100212, 0.1782652837, -0.3182454058, -9.89252683405, 0.117008325199, 0.233198865297, -9.66370073059, 0.03290131075, 0.1136590735, -10.0510513313
0.434942960739, -0.0707709482133, -0.552872221815, -9.74860127815, 0.16689937635, -0.3194418171, -9.8811609267, 0.117146568798, 0.232485422629, -9.66429348288, 0.03409772205, 0.1028913718, -10.0564351822
0.445088148117, -0.0707709482133, -0.552872221815, -9.74860127815, 0.16689937635, -0.3194418171, -9.8811609267, 0.117146568798, 0.232485422629, -9.66429348288, 0.03409772205, 0.1028913718, -10.0564351822
0.455319166183, -0.0703707862674, -0.552856464522, -9.74918377881, 0.1722832272, -0.3086741154, -9.8871429832, 0.11708312743, 0.232137447977, -9.66523902172, 0.0323031051, 0.10588240005, -10.0606226217
0.465459108353, -0.0703707862674, -0.552856464522, -9.74918377881, 0.1722832272, -0.3086741154, -9.8871429832, 0.11708312743, 0.232137447977, -9.66523902172, 0.0323031051, 0.10588240005, -10.0606226217
0.475605964661, -0.0720166072569, -0.552260865558, -9.74805252313, 0.1531406464, -0.3026920589, -9.870393225, 0.116712929187, 0.230177177793, -9.66597227475, 0.02931207685, 0.08913264185, -10.0594262104
0.485773086548, -0.0720166072569, -0.552260865558, -9.74805252313, 0.1531406464, -0.3026920589, -9.870393225, 0.116712929187, 0.230177177793, -9.66597227475, 0.02931207685, 0.08913264185, -10.0594262104
0.495985984802, -0.0731217273835, -0.556492449173, -9.74685701735, 0.1567298803, -0.3517449222, -9.86859860805, 0.117193813398, 0.227059965381, -9.66686766634, 0.0370887503, 0.0753739119, -10.061819033
0.506407976151, -0.0731217273835, -0.556492449173, -9.74685701735, 0.1567298803, -0.3517449222, -9.86859860805, 0.117193813398, 0.227059965381, -9.66686766634, 0.0370887503, 0.0753739119, -10.061819033
0.516674041748, -0.0748685730253, -0.556754228285, -9.74891469903, 0.1567298803, -0.3517449222, -9.86859860805, 0.117313508177, 0.225254494958, -9.665377746, 0.0370887503, 0.0753739119, -10.061819033
0.526940107346, -0.0748685730253, -0.556754228285, -9.74891469903, 0.1495514125, -0.31525437755, -9.9003035075, 0.117313508177, 0.225254494958, -9.665377746, 0.03409772205, 0.08554340795, -10.0384890127
0.537110090256, -0.073557156913, -0.559257357346, -9.74757385043, 0.1770688724, -0.3385843979, -9.8680004024, 0.116481930444, 0.228982623816, -9.66521413706, 0.0251246373, 0.1399801221, -10.0504531256
0.54733300209, -0.073557156913, -0.559257357346, -9.74757385043, 0.1770688724, -0.3385843979, -9.8680004024, 0.116481930444, 0.228982623816, -9.66521413706, 0.0251246373, 0.1399801221, -10.0504531256
0.557804107666, -0.0720634501087, -0.559765921301, -9.74666271281, 0.18005990065, -0.3206382284, -9.87099143065, 0.114794207452, 0.228220207296, -9.6643604974, 0.01615155255, 0.0981057266, -10.0432746578
0.56794500351, -0.0720634501087, -0.559765921301, -9.74666271281, 0.18005990065, -0.3206382284, -9.87099143065, 0.114794207452, 0.228220207296, -9.6643604974, 0.01615155255, 0.0981057266, -10.0432746578
0.57815694809, -0.0720634501087, -0.559765921301, -9.74666271281, 0.18005990065, -0.3206382284, -9.87099143065, 0.114794207452, 0.228220207296, -9.6643604974, 0.01615155255, 0.0981057266, -10.0432746578
0.588308095932, -0.0713459785914, -0.558188667959, -9.74726169434, 0.17407784415, -0.29970103065, -9.88534836625, 0.114151939589, 0.230357620423, -9.65799995468, 0.02452643165, 0.1268195978, -9.9864451211
0.598471164703, -0.0708883136077, -0.556710998211, -9.74774165249, 0.1722832272, -0.299102825, -9.8847501606, 0.114137480333, 0.233575436734, -9.65910391859, 0.0299102825, 0.1399801221, -10.0558369765
0.608678102493, -0.0708883136077, -0.556710998211, -9.74774165249, 0.1722832272, -0.299102825, -9.8847501606, 0.114137480333, 0.233575436734, -9.65910391859, 0.0299102825, 0.1399801221, -10.0558369765
0.619374990463, -0.0721689495599, -0.557416056339, -9.74852836617, 0.1722832272, -0.299102825, -9.8847501606, 0.114137480333, 0.233575436734, -9.65910391859, 0.0430708068, 0.12023933565, -10.0743813517
0.630570173264, -0.0721689495599, -0.557416056339, -9.74852836617, 0.15613167465, -0.32004002275, -9.8883393945, 0.115502111452, 0.234530254668, -9.66192233114, 0.0430708068, 0.12023933565, -10.0743813517
0.640712022781, -0.0706886905697, -0.556829632114, -9.75018241206, 0.18125631195, -0.3074777041, -9.8979106849, 0.116605039054, 0.23497781756, -9.66163333595, 0.0418743955, 0.1160518961, -10.0456674804
0.651067972183, -0.0706886905697, -0.556829632114, -9.75018241206, 0.18125631195, -0.3074777041, -9.8979106849, 0.116605039054, 0.23497781756, -9.66163333595, 0.0418743955, 0.1160518961, -10.0456674804
0.661506175995, -0.069607203321, -0.556011141611, -9.75066592456, 0.17886348935, -0.30448667585, -9.88774118885, 0.117973395109, 0.237380665658, -9.66007818896, 0.0454636294, 0.1363908882, -10.0325069561
0.671654939651, -0.069607203321, -0.556011141611, -9.75066592456, 0.17886348935, -0.30448667585, -9.88774118885, 0.117973395109, 0.237380665658, -9.66007818896, 0.0454636294, 0.1363908882, -10.0325069561
0.681801080704, -0.0682577460334, -0.568879667326, -9.74991858132, 0.18245272325, -0.44446679795, -9.87577707585, 0.118516093334, 0.235484321205, -9.65708917551, 0.03888336725, 0.09511469835, -10.0163554036
0.691998004913, -0.0682577460334, -0.568879667326, -9.74991858132, 0.18245272325, -0.44446679795, -9.87577707585, 0.118516093334, 0.235484321205, -9.65708917551, 0.03888336725, 0.09511469835, -10.0163554036
0.70231294632, -0.0682577460334, -0.568879667326, -9.74991858132, 0.18245272325, -0.44446679795, -9.87577707585, 0.118516093334, 0.235484321205, -9.65708917551, 0.03888336725, 0.09511469835, -10.0163554036
0.712728023529, -0.0677954720022, -0.567786441142, -9.7504284769, 0.17527425545, -0.31405796625, -9.88774118885, 0.116249232839, 0.237836518939, -9.65504658907, 0.01256231865, 0.1363908882, -10.0229356657
0.722890138626, -0.0639316700386, -0.562907040995, -9.74893625051, 0.2081755662, -0.2739781877, -9.8680004024, 0.117152207898, 0.238482878153, -9.6580352707, 0.0406779842, 0.12143574695, -10.0719885291
0.733114957809, -0.0639316700386, -0.562907040995, -9.74893625051, 0.2081755662, -0.2739781877, -9.8680004024, 0.117152207898, 0.238482878153, -9.6580352707, 0.0406779842, 0.12143574695, -10.0719885291
0.743625164032, -0.0634005119218, -0.562643644404, -9.74883487647, 0.18005990065, -0.31645078885, -9.88056272105, 0.118653707675, 0.235711590702, -9.65778178573, 0.04725824635, 0.0873380249, -10.0420782466
0.753776073456, -0.0634005119218, -0.562643644404, -9.74883487647, 0.18005990065, -0.31645078885, -9.88056272105, 0.118653707675, 0.235711590702, -9.65778178573, 0.04725824635, 0.0873380249, -10.0420782466
0.763920068741, -0.0634005119218, -0.562643644404, -9.74883487647, 0.18005990065, -0.31645078885, -9.88056272105, 0.118653707675, 0.235711590702, -9.65778178573, 0.04725824635, 0.0873380249, -10.0420782466
0.774142026901, -0.0621075456282, -0.562174020513, -9.74750201013, 0.1878365741, -0.31405796625, -9.8680004024, 0.117813350397, 0.236982215988, -9.65849550476, 0.0263210486, 0.1256231865, -10.0516495369
0.784306049347, -0.0621075456282, -0.562174020513, -9.74750201013, 0.1878365741, -0.31405796625, -9.8680004024, 0.117813350397, 0.236982215988, -9.65849550476, 0.0263210486, 0.1256231865, -10.0516495369
0.794572114944, -0.0610065624246, -0.56105365813, -9.75109157358, 0.18723836845, -0.30687949845, -9.91645506005, 0.119311356127, 0.232890376007, -9.65631228539, 0.047856452, 0.07238288365, -10.0229356657
0.80482506752, -0.0610065624246, -0.56105365813, -9.75109157358, 0.18723836845, -0.30687949845, -9.91645506005, 0.119311356127, 0.232890376007, -9.65631228539, 0.047856452, 0.07238288365, -10.0229356657
0.815024137497, -0.0620843307428, -0.558301079784, -9.75065641679, 0.167497582, -0.28893332895, -9.87936630975, 0.119595017846, 0.232325431767, -9.65676089267, 0.03768695595, 0.1040877831, -10.0474620974
0.82519197464, -0.0620843307428, -0.558301079784, -9.75065641679, 0.167497582, -0.28893332895, -9.87936630975, 0.119595017846, 0.232325431767, -9.65676089267, 0.03768695595, 0.1040877831, -10.0474620974
0.835415124893, -0.0609856690278, -0.557916861915, -9.74943702254, 0.18723836845, -0.31046873235, -9.87099143065, 0.120852236629, 0.233111126449, -9.65575185598, 0.04725824635, 0.1172483074, -10.0331051618
0.845700979233, -0.0609856690278, -0.557916861915, -9.74943702254, 0.18723836845, -0.31046873235, -9.87099143065, 0.120852236629, 0.233111126449, -9.65575185598, 0.04725824635, 0.1172483074, -10.0331051618
0.855847120285, -0.0616894079218, -0.55384999447, -9.7490490704, 0.1710868159, -0.27218357075, -9.87816989845, 0.120919190095, 0.234171200162, -9.65596217636, 0.0370887503, 0.1208375413, -10.0444710691
0.866047143936, -0.0616894079218, -0.55384999447, -9.7490490704, 0.1710868159, -0.27218357075, -9.87816989845, 0.120919190095, 0.234171200162, -9.65596217636, 0.0370887503, 0.1208375413, -10.0444710691
0.876249074936, -0.062197400005, -0.538619607503, -9.74905466482, 0.1722832272, -0.1531406464, -9.88175913235, 0.118912981542, 0.234007596255, -9.65479754742, 0.01734796385, 0.10947163395, -10.0307123392
0.886379957199, -0.062197400005, -0.538619607503, -9.74905466482, 0.1722832272, -0.1531406464, -9.88175913235, 0.118912981542, 0.234007596255, -9.65479754742, 0.01734796385, 0.10947163395, -10.0307123392
0.896561145782, -0.0630933981045, -0.541075662962, -9.74923707547, 0.16809578765, -0.3194418171, -9.8835537493, 0.117483115057, 0.231330888495, -9.65451463897, 0.02093719775, 0.083748791, -10.0384890127
0.906713962555, -0.0630933981045, -0.541075662962, -9.74923707547, 0.16809578765, -0.3194418171, -9.8835537493, 0.117483115057, 0.231330888495, -9.65451463897, 0.02093719775, 0.083748791, -10.0384890127
0.91686797142, -0.0630933981045, -0.541075662962, -9.74923707547, 0.16809578765, -0.3194418171, -9.8835537493, 0.117483115057, 0.231330888495, -9.65451463897, 0.02093719775, 0.083748791, -10.0384890127
0.927023172379, -0.0649027797645, -0.544158238976, -9.74709536132, 0.15852449725, -0.32841490185, -9.86022372895, 0.117761740277, 0.230686594007, -9.6553196088, 0.035892339, 0.1016949605, -10.0492567143
0.937181949615, -0.0655909263487, -0.546234856507, -9.74818320501, 0.167497582, -0.32123643405, -9.8907322171, 0.117699401963, 0.234518585209, -9.65733913296, 0.03290131075, 0.14656038425, -10.0624172386
0.947337150574, -0.0655909263487, -0.546234856507, -9.74818320501, 0.167497582, -0.32123643405, -9.8907322171, 0.117699401963, 0.234518585209, -9.65733913296, 0.03290131075, 0.14656038425, -10.0624172386
0.9576151371, -0.0641416050731, -0.544731591364, -9.74928051478, 0.18723836845, -0.28654050635, -9.8919286284, 0.117699401963, 0.234518585209, -9.65733913296, 0.03290131075, 0.14656038425, -10.0624172386
0.968059062958, -0.0641416050731, -0.544731591364, -9.74928051478, 0.18723836845, -0.28654050635, -9.8919286284, 0.119146182334, 0.232379026052, -9.66121701361, 0.04725824635, 0.0897308475, -10.0833544364
0.978407144547, -0.0641416050731, -0.544731591364, -9.74928051478, 0.18723836845, -0.28654050635, -9.8919286284, 0.119146182334, 0.232379026052, -9.66121701361, 0.04725824635, 0.0897308475, -10.0833544364
0.988827943802, -0.0645297503625, -0.545936889297, -9.74991334223, 0.1710868159, -0.31286155495, -9.8883393945, 0.119321121028, 0.229747525812, -9.66064535435, 0.03649054465, 0.0825523797, -10.0420782466
0.998965024948, -0.0655059457295, -0.548242633976, -9.74930038245, 0.1651047594, -0.3254238736, -9.8763752815, 0.120042147672, 0.228614495344, -9.66230890186, 0.0418743955, 0.09511469835, -10.0642118556
1.0091149807, -0.0655059457295, -0.548242633976, -9.74930038245, 0.1651047594, -0.3254238736, -9.8763752815, 0.120042147672, 0.228614495344, -9.66230890186, 0.0418743955, 0.09511469835, -10.0642118556
1.01935505867, -0.0659457163353, -0.545899031946, -9.74945822134, 0.16929219895, -0.2799602442, -9.8835537493, 0.120941552461, 0.229830108418, -9.66198124959, 0.0442672181, 0.11784651305, -10.0456674804
1.02953100204, -0.0659457163353, -0.545899031946, -9.74945822134, 0.16929219895, -0.2799602442, -9.8835537493, 0.120941552461, 0.229830108418, -9.66198124959, 0.0442672181, 0.11784651305, -10.0456674804
1.03978610039, -0.0659457163353, -0.545899031946, -9.74945822134, 0.16929219895, -0.2799602442, -9.8835537493, 0.120941552461, 0.229830108418, -9.66198124959, 0.0442672181, 0.11784651305, -10.0456674804
1.04994511604, -0.0671564338689, -0.543440939678, -9.74818127096, 0.1615155255, -0.2763710103, -9.8691968137, 0.120941552461, 0.229830108418, -9.66198124959, 0.0203389921, 0.08195417405, -10.04985492
1.06011295319, -0.0671564338689, -0.543440939678, -9.74818127096, 0.1615155255, -0.2763710103, -9.8691968137, 0.119246208682, 0.227394675192, -9.66209842433, 0.0203389921, 0.08195417405, -10.04985492
1.07051801682, -0.0651744430773, -0.5464032715, -9.75034302817, 0.19082760235, -0.32961131315, -9.9026963301, 0.11966162555, 0.224849836789, -9.66114429415, 0.03888336725, 0.07836494015, -10.0390872183
1.08166098595, -0.0651744430773, -0.5464032715, -9.75034302817, 0.19082760235, -0.32961131315, -9.9026963301, 0.11966162555, 0.224849836789, -9.66114429415, 0.03888336725, 0.07836494015, -10.0390872183
1.09196305275, -0.0659607962516, -0.547557684899, -9.75092872951, 0.1663011707, -0.31405796625, -9.88893760015, 0.121538385584, 0.226147791969, -9.66152176234, 0.05324030285, 0.1148554848, -10.0516495369
1.10217809677, -0.0659607962516, -0.547557684899, -9.75092872951, 0.1663011707, -0.31405796625, -9.88893760015, 0.121538385584, 0.226147791969, -9.66152176234, 0.05324030285, 0.1148554848, -10.0516495369
1.11252999306, -0.0659162765806, -0.546968688237, -9.75104198414, 0.1734796385, -0.29730820805, -9.8847501606, 0.118718815056, 0.226257106133, -9.66327426696, 0.01016949605, 0.1040877831, -10.0660064725
1.12300300598, -0.0666911328651, -0.551031788704, -9.75102566286, 0.1734796385, -0.29730820805, -9.8847501606, 0.118718815056, 0.226257106133, -9.66327426696, 0.01016949605, 0.1040877831, -10.0660064725
1.1331911087, -0.0666911328651, -0.551031788704, -9.75102566286, 0.16570296505, -0.3445664544, -9.8835537493, 0.117809326838, 0.231061468871, -9.66420399546, 0.02572284295, 0.1519442351, -10.0594262104
1.14333105087, -0.0658840284656, -0.537362340595, -9.75059709714, 0.18005990065, -0.1663011707, -9.87936630975, 0.116427205621, 0.22809112635, -9.66427549351, 0.02572284295, 0.1519442351, -10.0594262104
1.15350103378, -0.0658840284656, -0.537362340595, -9.75059709714, 0.18005990065, -0.1663011707, -9.87936630975, 0.116427205621, 0.22809112635, -9.66427549351, 0.0203389921, 0.0777667345, -10.0516495369
1.16388297081, -0.0658840284656, -0.537362340595, -9.75059709714, 0.18005990065, -0.1663011707, -9.87936630975, 0.116427205621, 0.22809112635, -9.66427549351, 0.0203389921, 0.0777667345, -10.0516495369
1.17405796051, -0.067853152314, -0.535467208762, -9.74938363485, 0.1543370577, -0.27337998205, -9.87099143065, 0.118502167244, 0.225476642832, -9.66192633705, 0.05204389155, 0.07836494015, -10.0271231053
1.18515300751, -0.067853152314, -0.535467208762, -9.74938363485, 0.1543370577, -0.27337998205, -9.87099143065, 0.118502167244, 0.225476642832, -9.66192633705, 0.05204389155, 0.07836494015, -10.0271231053
1.19573116302, -0.0694999908562, -0.536668677114, -9.74628126117, 0.155533469, -0.30329026455, -9.85065243855, 0.119993911491, 0.225947195659, -9.66428590985, 0.04845465765, 0.10707881135, -10.0725867347
1.2058839798, -0.0694999908562, -0.536668677114, -9.74628126117, 0.155533469, -0.30329026455, -9.85065243855, 0.119993911491, 0.225947195659, -9.66428590985, 0.04845465765, 0.10707881135, -10.0725867347
1.21610808372, -0.0687254329609, -0.53641273861, -9.74756876532, 0.1770688724, -0.2895315346, -9.8919286284, 0.119583115652, 0.227606012951, -9.66264210337, 0.03170489945, 0.11964113, -10.0343015731
1.22650003433, -0.0687254329609, -0.53641273861, -9.74756876532, 0.1770688724, -0.2895315346, -9.8919286284, 0.119583115652, 0.227606012951, -9.66264210337, 0.03170489945, 0.11964113, -10.0343015731
1.23671317101, -0.069282060068, -0.534089291316, -9.74801801637, 0.1651047594, -0.2679961312, -9.8847501606, 0.121718207484, 0.233863753253, -9.66192793514, 0.05563312545, 0.16809578765, -10.0420782466
1.24685311317, -0.0696576515432, -0.533335448771, -9.7444609523, 0.1651047594, -0.2679961312, -9.8847501606, 0.119632097192, 0.229789635796, -9.65999013242, 0.01734796385, 0.0693918554, -10.0289177222
1.25697302818, -0.0696576515432, -0.533335448771, -9.7444609523, 0.1663011707, -0.28175486115, -9.84467038205, 0.119632097192, 0.229789635796, -9.65999013242, 0.01734796385, 0.0693918554, -10.0289177222
1.26904511452, -0.0681150900513, -0.532366281781, -9.74604873779, 0.1842473402, -0.2787638329, -9.8931250397, 0.12032202622, 0.230417136826, -9.66177806809, 0.0418743955, 0.11306086785, -10.0648100613
1.27932715416, -0.0681150900513, -0.532366281781, -9.74604873779, 0.1842473402, -0.2787638329, -9.8931250397, 0.12032202622, 0.230417136826, -9.66177806809, 0.0418743955, 0.11306086785, -10.0648100613
1.28954100609, -0.0681150900513, -0.532366281781, -9.74604873779, 0.1842473402, -0.2787638329, -9.8931250397, 0.12032202622, 0.230417136826, -9.66177806809, 0.0418743955, 0.11306086785, -10.0648100613
1.29988908768, -0.0664760388661, -0.535156961112, -9.74570398801, 0.1866401628, -0.31645078885, -9.8751788702, 0.120817721941, 0.231628960001, -9.65967865417, 0.0406779842, 0.11964113, -10.0271231053
1.31019711494, -0.0655650709452, -0.538598840351, -9.74503896186, 0.18125631195, -0.32602207925, -9.8715896363, 0.122516252134, 0.230660734613, -9.65949629473, 0.0526420972, 0.09870393225, -10.0444710691
1.32032895088, -0.0655650709452, -0.538598840351, -9.74503896186, 0.18125631195, -0.32602207925, -9.8715896363, 0.122516252134, 0.230660734613, -9.65949629473, 0.0526420972, 0.09870393225, -10.0444710691
1.33076310158, -0.0667511665572, -0.542161665585, -9.74485431489, 0.16211373115, -0.33080772445, -9.87577707585, 0.120475577781, 0.227259867519, -9.65992083092, 0.01854437515, 0.0729810893, -10.0504531256
1.34095001221, -0.0667511665572, -0.542161665585, -9.74485431489, 0.16211373115, -0.33080772445, -9.87577707585, 0.120475577781, 0.227259867519, -9.65992083092, 0.01854437515, 0.0729810893, -10.0504531256
1.35116314888, -0.0667511665572, -0.542161665585, -9.74485431489, 0.16211373115, -0.33080772445, -9.87577707585, 0.120475577781, 0.227259867519, -9.65992083092, 0.01854437515, 0.0729810893, -10.0504531256
1.36136698723, -0.0646216431149, -0.541821562155, -9.74693489114, 0.1926222193, -0.2943171798, -9.89850889055, 0.120204475919, 0.228257994876, -9.66189229465, 0.0334995164, 0.11425727915, -10.0666046782
1.37157607079, -0.0646216431149, -0.541821562155, -9.74693489114, 0.1926222193, -0.2943171798, -9.89850889055, 0.120204475919, 0.228257994876, -9.66189229465, 0.0334995164, 0.11425727915, -10.0666046782
1.38184404373, -0.0642095470724, -0.542213169947, -9.74768403051, 0.1782652837, -0.3014956476, -9.8871429832, 0.120524066064, 0.233921114237, -9.6634900141, 0.03888336725, 0.1627119368, -10.0648100613
1.39227199554, -0.0642095470724, -0.542213169947, -9.74768403051, 0.1782652837, -0.3014956476, -9.8871429832, 0.120524066064, 0.233921114237, -9.6634900141, 0.03888336725, 0.1627119368, -10.0648100613
1.40252113342, -0.0651550763077, -0.538146844718, -9.74587499652, 0.16570296505, -0.2560320182, -9.8620183459, 0.118369509307, 0.236017859419, -9.66345631238, 0.0155533469, 0.13220344865, -10.04985492
1.41280317307, -0.0651550763077, -0.538146844718, -9.74587499652, 0.16570296505, -0.2560320182, -9.8620183459, 0.118369509307, 0.236017859419, -9.66345631238, 0.0155533469, 0.13220344865, -10.04985492
1.42293906212, -0.0648776963279, -0.541929294737, -9.74406949026, 0.17647066675, -0.3326023414, -9.86022372895, 0.11711923045, 0.232257754094, -9.663131651, 0.02213360905, 0.07477570625, -10.0468638917
1.43312716484, -0.0648776963279, -0.541929294737, -9.74406949026, 0.17647066675, -0.3326023414, -9.86022372895, 0.11711923045, 0.232257754094, -9.663131651, 0.02213360905, 0.07477570625, -10.0468638917
1.44335007668, -0.0657564106377, -0.542193845791, -9.74717455256, 0.16570296505, -0.3002992363, -9.90808018095, 0.116056599682, 0.232109020545, -9.66454656884, 0.0227318147, 0.107677017, -10.0642118556
1.453592062, -0.0657564106377, -0.542193845791, -9.74717455256, 0.16570296505, -0.3002992363, -9.90808018095, 0.116056599682, 0.232109020545, -9.66454656884, 0.0227318147, 0.107677017, -10.0642118556
1.46373605728, -0.0671114316624, -0.533536255515, -9.74724934831, 0.1603191142, -0.20877377185, -9.88056272105, 0.116164775427, 0.232798706849, -9.66652638653, 0.03290131075, 0.1160518961, -10.0713903234
1.47397708893, -0.0671114316624, -0.533536255515, -9.74724934831, 0.1603191142, -0.20877377185, -9.88056272105, 0.116164775427, 0.232798706849, -9.66652638653, 0.03290131075, 0.1160518961, -10.0713903234
1.484333992, -0.0681428912026, -0.535512236592, -9.74725753927, 0.16211373115, -0.30927232105, -9.8799645154, 0.117326677036, 0.229595815781, -9.66701317113, 0.0430708068, 0.07716852885, -10.0582297991
1.49455213547, -0.0681428912026, -0.535512236592, -9.74725753927, 0.16211373115, -0.30927232105, -9.8799645154, 0.117326677036, 0.229595815781, -9.66701317113, 0.0430708068, 0.07716852885, -10.0582297991
1.50475001335, -0.0671279245087, -0.535895217801, -9.74460427604, 0.1806581063, -0.29491538545, -9.85304526115, 0.1159928208, 0.22636026532, -9.66798107099, 0.0203389921, 0.07357929495, -10.0636136499
1.51545500755, -0.0671279245087, -0.535895217801, -9.74460427604, 0.1806581063, -0.29491538545, -9.85304526115, 0.1159928208, 0.22636026532, -9.66798107099, 0.0203389921, 0.07357929495, -10.0636136499
1.52562308311, -0.0664025138662, -0.539495838331, -9.74416747154, 0.17886348935, -0.32841490185, -9.8727860476, 0.116733576456, 0.224212991654, -9.66926424265, 0.03888336725, 0.0813559684, -10.0678010895
1.53588604927, -0.0664025138662, -0.539495838331, -9.74416747154, 0.17886348935, -0.32841490185, -9.8727860476, 0.116733576456, 0.224212991654, -9.66926424265, 0.03888336725, 0.0813559684, -10.0678010895
1.54632306099, -0.0673168058041, -0.539538601105, -9.74117283762, 0.17886348935, -0.32841490185, -9.8727860476, 0.117525496951, 0.226633476845, -9.66959497358, 0.03888336725, 0.0813559684, -10.0678010895
1.55650997162, -0.0673168058041, -0.539538601105, -9.74117283762, 0.1639083481, -0.2955135911, -9.846464999, 0.117525496951, 0.226633476845, -9.66959497358, 0.04007977855, 0.1256231865, -10.0594262104
1.56665110588, -0.0675128039418, -0.542251607644, -9.74096092651, 0.1698904046, -0.323031051, -9.8715896363, 0.116046518319, 0.221635294033, -9.67283592985, 0.0191425808, 0.0526420972, -10.0893364929
1.57679605484, -0.0675128039418, -0.542251607644, -9.74096092651, 0.1698904046, -0.323031051, -9.8715896363, 0.116046518319, 0.221635294033, -9.67283592985, 0.0191425808, 0.0526420972, -10.0893364929
1.58701515198, -0.0666862188953, -0.54550729789, -9.7414797092, 0.179461695, -0.3314059301, -9.8787681041, 0.116280942606, 0.22254880649, -9.67328041981, 0.03409772205, 0.107677017, -10.0642118556
1.59732508659, -0.0666862188953, -0.54550729789, -9.7414797092, 0.179461695, -0.3314059301, -9.8787681041, 0.116280942606, 0.22254880649, -9.67328041981, 0.03409772205, 0.107677017, -10.0642118556
1.60754799843, -0.0818646533581, -0.542855812068, -9.74247874063, 0.0275174599, -0.2739781877, -9.88415195495, 0.116241443654, 0.225959256695, -9.67544643983, 0.03170489945, 0.1339980656, -10.0821580251
1.61773014069, -0.0818646533581, -0.542855812068, -9.74247874063, 0.0275174599, -0.2739781877, -9.88415195495, 0.116241443654, 0.225959256695, -9.67544643983, 0.03170489945, 0.1339980656, -10.0821580251
1.62797212601, -0.0804804938191, -0.542620719209, -9.74456037341, 0.1710868159, -0.29611179675, -9.89611606795, 0.115517072374, 0.222852063144, -9.67639513639, 0.0251246373, 0.07118647235, -10.0719885291
1.63835096359, -0.0804804938191, -0.542620719209, -9.74456037341, 0.1710868159, -0.29611179675, -9.89611606795, 0.115517072374, 0.222852063144, -9.67639513639, 0.0251246373, 0.07118647235, -10.0719885291
1.64910197258, -0.0800496742224, -0.545083655677, -9.74560608978, 0.16331014245, -0.32362925665, -9.88774118885, 0.11592968166, 0.224349795688, -9.67377587113, 0.0251246373, 0.07118647235, -10.0719885291
1.65948915482, -0.0800496742224, -0.545083655677, -9.74560608978, 0.16331014245, -0.32362925665, -9.88774118885, 0.11592968166, 0.224349795688, -9.67377587113, 0.03529413335, 0.1148554848, -10.0366943957
1.6696600914, -0.0777813427659, -0.546951448059, -9.74642898405, 0.18125631195, -0.32004002275, -9.88654477755, 0.114109322939, 0.222697692735, -9.67177172822, 0.0143569356, 0.08434699665, -10.0402836296
1.67986702919, -0.0777813427659, -0.546951448059, -9.74642898405, 0.18125631195, -0.32004002275, -9.88654477755, 0.114109322939, 0.222697692735, -9.67177172822, 0.0143569356, 0.08434699665, -10.0402836296
1.69032812119, -0.0774323788925, -0.550551138623, -9.74734696458, 0.1651047594, -0.3397808092, -9.8883393945, 0.11641607283, 0.225093233568, -9.67079212315, 0.05204389155, 0.12382856955, -10.0486585087
1.7004840374, -0.0774323788925, -0.550551138623, -9.74734696458, 0.1651047594, -0.3397808092, -9.8883393945, 0.11641607283, 0.225093233568, -9.67079212315, 0.05204389155, 0.12382856955, -10.0486585087
1.71065306664, -0.0769929384852, -0.553616434911, -9.74793664615, 0.1663011707, -0.33798619225, -9.8859465719, 0.114547074992, 0.226955096569, -9.66832109744, 0.0143569356, 0.1208375413, -10.0325069561
1.72089409828, -0.0769929384852, -0.553616434911, -9.74793664615, 0.1663011707, -0.33798619225, -9.8859465719, 0.114547074992, 0.226955096569, -9.66832109744, 0.0143569356, 0.1208375413, -10.0325069561
1.73116016388, -0.0759078910515, -0.55660776853, -9.74627972627, 0.17288143285, -0.34037901485, -9.86381296285, 0.114242621387, 0.227689577271, -9.66851067902, 0.0275174599, 0.1112662509, -10.0570333878
1.74132108688, -0.0759078910515, -0.55660776853, -9.74627972627, 0.17288143285, -0.34037901485, -9.86381296285, 0.114242621387, 0.227689577271, -9.66851067902, 0.0275174599, 0.1112662509, -10.0570333878
1.75150203705, -0.089411920771, -0.558776693127, -9.74685788123, 0.0346959277, -0.334995164, -9.8847501606, 0.116473421231, 0.224703475412, -9.66732738516, 0.0514456859, 0.0741775006, -10.0432746578
1.76187205315, -0.089411920771, -0.558776693127, -9.74685788123, 0.0346959277, -0.334995164, -9.8847501606, 0.116473421231, 0.224703475412, -9.66732738516, 0.0514456859, 0.0741775006, -10.0432746578
1.77204608917, -0.0860193052777, -0.555205259961, -9.74578183963, 0.1830509289, -0.27816562725, -9.86859860805, 0.117541838057, 0.22083948874, -9.66685108037, 0.04247260115, 0.0622133876, -10.0492567143
1.78227496147, -0.0860193052777, -0.555205259961, -9.74578183963, 0.1830509289, -0.27816562725, -9.86859860805, 0.117541838057, 0.22083948874, -9.66685108037, 0.04247260115, 0.0622133876, -10.0492567143
1.79269599915, -0.0834047565582, -0.556816734535, -9.74635065803, 0.17886348935, -0.3278166962, -9.88415195495, 0.116562186932, 0.221773756977, -9.66854158093, 0.023928226, 0.10707881135, -10.0707921177
1.80432295799, -0.0834047565582, -0.556816734535, -9.74635065803, 0.17886348935, -0.3278166962, -9.88415195495, 0.116562186932, 0.221773756977, -9.66854158093, 0.023928226, 0.10707881135, -10.0707921177
1.81446504593, -0.0814277814746, -0.558906620791, -9.74615309189, 0.17527425545, -0.33439695835, -9.87697348715, 0.118435789817, 0.223732268637, -9.66870911416, 0.0502492746, 0.1184447187, -10.0570333878
1.82461500168, -0.0814277814746, -0.558906620791, -9.74615309189, 0.17527425545, -0.33439695835, -9.87697348715, 0.118435789817, 0.223732268637, -9.66870911416, 0.0502492746, 0.1184447187, -10.0570333878
1.83482503891, -0.0788962663716, -0.558694415781, -9.74709866163, 0.18245272325, -0.31286155495, -9.8883393945, 0.118556527358, 0.225200805382, -9.66668185322, 0.03529413335, 0.11545369045, -10.0348997787
1.84510803223, -0.0788962663716, -0.558694415781, -9.74709866163, 0.18245272325, -0.31286155495, -9.8883393945, 0.118556527358, 0.225200805382, -9.66668185322, 0.03529413335, 0.11545369045, -10.0348997787
1.85526514053, -0.0765552163182, -0.558561573012, -9.74528903931, 0.1830509289, -0.3134597606, -9.86142014025, 0.117350166899, 0.227169560701, -9.66615236969, 0.0227318147, 0.1220339526, -10.048060303
1.86540913582, -0.0765552163182, -0.558561573012, -9.74528903931, 0.1830509289, -0.3134597606, -9.86142014025, 0.117350166899, 0.227169560701, -9.66615236969, 0.0227318147, 0.1220339526, -10.048060303
1.87559008598, -0.0765552163182, -0.558561573012, -9.74528903931, 0.1830509289, -0.3134597606, -9.86142014025, 0.117350166899, 0.227169560701, -9.66615236969, 0.0227318147, 0.1220339526, -10.048060303
1.88582015038, -0.0760154327864, -0.558325731039, -9.74809477103, 0.16809578765, -0.3122633493, -9.906285564, 0.117516846529, 0.228882615738, -9.66661769001, 0.0346959277, 0.12143574695, -10.0576315934
1.89613008499, -0.0760154327864, -0.558325731039, -9.74809477103, 0.16809578765, -0.3122633493, -9.906285564, 0.117516846529, 0.228882615738, -9.66661769001, 0.0346959277, 0.12143574695, -10.0576315934
1.90630698204, -0.0755923140684, -0.559567016765, -9.74825492061, 0.167497582, -0.32721849055, -9.882357338, 0.118981882444, 0.233130303766, -9.66950884898, 0.04725824635, 0.14895320685, -10.0827562307
1.91654109955, -0.0755923140684, -0.559567016765, -9.74825492061, 0.167497582, -0.32721849055, -9.882357338, 0.118981882444, 0.233130303766, -9.66950884898, 0.04725824635, 0.14895320685, -10.0827562307
1.92676305771, -0.0753368801435, -0.558009653877, -9.75040931286, 0.1663011707, -0.29970103065, -9.9026963301, 0.116856303645, 0.231364871753, -9.66828460409, 0.0143569356, 0.0921236701, -10.0438728635
1.93692803383, -0.0753368801435, -0.558009653877, -9.75040931286, 0.1663011707, -0.29970103065, -9.9026963301, 0.116856303645, 0.231364871753, -9.66828460409, 0.0143569356, 0.0921236701, -10.0438728635
1.9471321106, -0.0745428114653, -0.555038200296, -9.75069275961, 0.17168502155, -0.2835494781, -9.8859465719, 0.116884508994, 0.233776065933, -9.66571113448, 0.03290131075, 0.1328016543, -10.0289177222
1.95729804039, -0.0745428114653, -0.555038200296, -9.75069275961, 0.17168502155, -0.2835494781, -9.8859465719, 0.116884508994, 0.233776065933, -9.66571113448, 0.03290131075, 0.1328016543, -10.0289177222
1.96749615669, -0.0738908361155, -0.555270979076, -9.75000185809, 0.1710868159, -0.3134597606, -9.8763752815, 0.118162297853, 0.236828511943, -9.66833975319, 0.04486542375, 0.14177473905, -10.0791669969
1.97778511047, -0.0738908361155, -0.555270979076, -9.75000185809, 0.1710868159, -0.3134597606, -9.8763752815, 0.118162297853, 0.236828511943, -9.66833975319, 0.04486542375, 0.14177473905, -10.0791669969
1.98791909218, -0.0753727115021, -0.547166211152, -9.75026692509, 0.15134602945, -0.22791635265, -9.88534836625, 0.117057980546, 0.231222598869, -9.66670262416, 0.02333002035, 0.05682953675, -10.0384890127
1.99806594849, -0.0753727115021, -0.547166211152, -9.75026692509, 0.15134602945, -0.22791635265, -9.88534836625, 0.117057980546, 0.231222598869, -9.66670262416, 0.02333002035, 0.05682953675, -10.0384890127
2.00831007957, -0.074575059688, -0.549872299307, -9.75145148897, 0.17168502155, -0.33080772445, -9.89491965665, 0.115688373757, 0.234883340085, -9.66363982688, 0.01974078645, 0.14536397295, -10.0223374601
2.0184481144, -0.074575059688, -0.549872299307, -9.75145148897, 0.17168502155, -0.33080772445, -9.89491965665, 0.115688373757, 0.234883340085, -9.66363982688, 0.01974078645, 0.14536397295, -10.0223374601
2.02863311768, -0.074575059688, -0.549872299307, -9.75145148897, 0.17168502155, -0.33080772445, -9.89491965665, 0.115688373757, 0.234883340085, -9.66363982688, 0.01974078645, 0.14536397295, -10.0223374601
2.03890705109, -0.0734183678308, -0.548993699464, -9.7479649542, 0.1758724611, -0.2967100024, -9.8488578216, 0.116083852904, 0.233354377689, -9.66659330829, 0.03529413335, 0.09631110965, -10.0803634081
2.04916810989, -0.0714370482496, -0.563610520714, -9.75008921787, 0.18484554585, -0.45523449965, -9.90209812445, 0.115250000294, 0.234860724277, -9.66436556616, 0.023928226, 0.1256231865, -10.0307123392
2.05929398537, -0.0714370482496, -0.563610520714, -9.75008921787, 0.18484554585, -0.45523449965, -9.90209812445, 0.115250000294, 0.234860724277, -9.66436556616, 0.023928226, 0.1256231865, -10.0307123392
2.06946110725, -0.0714370482496, -0.563610520714, -9.75008921787, 0.18484554585, -0.45523449965, -9.90209812445, 0.115250000294, 0.234860724277, -9.66436556616, 0.023928226, 0.1256231865, -10.0307123392
2.07974004745, -0.0705314710755, -0.562869783972, -9.74945867053, 0.17647066675, -0.3122633493, -9.8763752815, 0.113121888497, 0.23409874521, -9.66012369144, 0.0107677017, 0.1040877831, -10.0079805245
2.09008002281, -0.0705314710755, -0.562869783972, -9.74945867053, 0.17647066675, -0.3122633493, -9.8763752815, 0.113121888497, 0.23409874521, -9.66012369144, 0.0107677017, 0.1040877831, -10.0079805245
2.100233078, -0.0706567485286, -0.563482239184, -9.7498371815, 0.167497582, -0.3254238736, -9.8859465719, 0.113335674754, 0.232295293802, -9.66484156964, 0.0311066938, 0.09272187575, -10.0947203437
2.1105029583, -0.0706567485286, -0.563482239184, -9.7498371815, 0.167497582, -0.3254238736, -9.8859465719, 0.113335674754, 0.232295293802, -9.66484156964, 0.0311066938, 0.09272187575, -10.0947203437
2.12090301514, -0.0694530825628, -0.563510173215, -9.75017784138, 0.18005990065, -0.32004002275, -9.8859465719, 0.115030967239, 0.236025239774, -9.66532023803, 0.0454636294, 0.1471585899, -10.0564351822
2.13102602959, -0.0694530825628, -0.563510173215, -9.75017784138, 0.18005990065, -0.32004002275, -9.8859465719, 0.115030967239, 0.236025239774, -9.66532023803, 0.0454636294, 0.1471585899, -10.0564351822
2.1411690712, -0.0698742582491, -0.563826022543, -9.75018880916, 0.16570296505, -0.323031051, -9.88295554365, 0.114865985016, 0.241558706894, -9.66445598827, 0.02931207685, 0.16929219895, -10.0432746578
2.15135812759, -0.0698742582491, -0.563826022543, -9.75018880916, 0.16570296505, -0.323031051, -9.88295554365, 0.114865985016, 0.241558706894, -9.66445598827, 0.02931207685, 0.16929219895, -10.0432746578
2.16165208817, -0.0698771976029, -0.567075515679, -9.75078993239, 0.16929219895, -0.35353953915, -9.88893760015, 0.113840818184, 0.238715135569, -9.66797537919, 0.02093719775, 0.0897308475, -10.0869436703
2.17192101479, -0.0698771976029, -0.567075515679, -9.75078993239, 0.16929219895, -0.35353953915, -9.88893760015, 0.113840818184, 0.238715135569, -9.66797537919, 0.02093719775, 0.0897308475, -10.0869436703
2.18216013908, -0.0698771976029, -0.567075515679, -9.75078993239, 0.16929219895, -0.35353953915, -9.88893760015, 0.113840818184, 0.238715135569, -9.66797537919, 0.02093719775, 0.0897308475, -10.0869436703
2.19251894951, -0.0695037242574, -0.564185885499, -9.75079881629, 0.17288143285, -0.29371897415, -9.8835537493, 0.115422976124, 0.239920705368, -9.66560942997, 0.04486542375, 0.1280160091, -10.0307123392
2.20269393921, -0.0695037242574, -0.564185885499, -9.75079881629, 0.17288143285, -0.29371897415, -9.8835537493, 0.115422976124, 0.239920705368, -9.66560942997, 0.04486542375, 0.1280160091, -10.0307123392
2.21286416054, -0.0681019284155, -0.564201596639, -9.75222581717, 0.1830509289, -0.3206382284, -9.8979106849, 0.115594514226, 0.238299779693, -9.6653049207, 0.03290131075, 0.1004985492, -10.0492567143
2.22305512428, -0.0681019284155, -0.564201596639, -9.75222581717, 0.1830509289, -0.3206382284, -9.8979106849, 0.115594514226, 0.238299779693, -9.6653049207, 0.03290131075, 0.1004985492, -10.0492567143
2.23334908485, -0.0660253881693, -0.562297059243, -9.75232761349, 0.19082760235, -0.30089744195, -9.8859465719, 0.114872215686, 0.237664493084, -9.66614931576, 0.02452643165, 0.1088734283, -10.0606226217
2.24369597435, -0.0660253881693, -0.562297059243, -9.75232761349, 0.19082760235, -0.30089744195, -9.8859465719, 0.114872215686, 0.237664493084, -9.66614931576, 0.02452643165, 0.1088734283, -10.0606226217
2.25386714935, -0.0672281385195, -0.564711039129, -9.75336523376, 0.1615155255, -0.3433700431, -9.8955178623, 0.114472627809, 0.23956337463, -9.66584968388, 0.02691925425, 0.1339980656, -10.04985492
2.26406908035, -0.0672281385195, -0.564711039129, -9.75336523376, 0.1615155255, -0.3433700431, -9.8955178623, 0.114472627809, 0.23956337463, -9.66584968388, 0.02691925425, 0.1339980656, -10.04985492
2.27443194389, -0.0687494190592, -0.563569541845, -9.75128370557, 0.15732808595, -0.30927232105, -9.86500937415, 0.113862517911, 0.236036965283, -9.66758145813, 0.02452643165, 0.08075776275, -10.0701939121
2.2846391201, -0.0687494190592, -0.563569541845, -9.75128370557, 0.15732808595, -0.30927232105, -9.86500937415, 0.113862517911, 0.236036965283, -9.66758145813, 0.02452643165, 0.08075776275, -10.0701939121
2.294932127, -0.0837215335057, -0.56475158041, -9.75136146259, 0.0275174599, -0.33200413575, -9.8847501606, 0.114816303856, 0.236157382864, -9.66731520992, 0.03888336725, 0.11425727915, -10.0516495369
2.30507898331, -0.0837215335057, -0.56475158041, -9.75136146259, 0.0275174599, -0.33200413575, -9.8847501606, 0.114816303856, 0.236157382864, -9.66731520992, 0.03888336725, 0.11425727915, -10.0516495369
2.31525611877, -0.0837215335057, -0.56475158041, -9.75136146259, 0.0275174599, -0.33200413575, -9.8847501606, 0.114816303856, 0.236157382864, -9.66731520992, 0.03888336725, 0.11425727915, -10.0516495369
2.32542514801, -0.0811487025815, -0.561222217656, -9.74906643495, 0.1806581063, -0.2847458894, -9.8608219346, 0.116864495049, 0.23903052193, -9.66860610171, 0.0502492746, 0.1423729447, -10.0672028838
2.33566212654, -0.0811487025815, -0.561222217656, -9.74906643495, 0.1806581063, -0.2847458894, -9.8608219346, 0.116864495049, 0.23903052193, -9.66860610171, 0.0502492746, 0.1423729447, -10.0672028838
2.3459250927, -0.0811487025815, -0.561222217656, -9.74906643495, 0.1806581063, -0.2847458894, -9.8608219346, 0.116864495049, 0.23903052193, -9.66860610171, 0.0502492746, 0.1423729447, -10.0672028838
2.35611009598, -0.0792092735136, -0.558801633799, -9.7485381659, 0.1770688724, -0.29252256285, -9.8763752815, 0.115576857011, 0.23232203661, -9.66729553364, 0.0203389921, 0.047856452, -10.0420782466
2.36628913879, -0.0748309560053, -0.558658069228, -9.74959997958, 0.2021935097, -0.3134597606, -9.8919286284, 0.11560776662, 0.228931513566, -9.66517416688, 0.03170489945, 0.07477570625, -10.0325069561
2.3765039444, -0.0748309560053, -0.558658069228, -9.74959997958, 0.2021935097, -0.3134597606, -9.8919286284, 0.11560776662, 0.228931513566, -9.66517416688, 0.03170489945, 0.07477570625, -10.0325069561
2.38673615456, -0.0748397172687, -0.557540451533, -9.75014173532, 0.16450655375, -0.30329026455, -9.88774118885, 0.11569820547, 0.22452707358, -9.66361813261, 0.0323031051, 0.0610169763, -10.03609619
2.39711904526, -0.0748397172687, -0.557540451533, -9.75014173532, 0.16450655375, -0.30329026455, -9.88774118885, 0.11569820547, 0.22452707358, -9.66361813261, 0.0323031051, 0.0610169763, -10.03609619
2.40736413002, -0.0740953648779, -0.558860265209, -9.74690442637, 0.16450655375, -0.30329026455, -9.88774118885, 0.114777677199, 0.226563202079, -9.66251203161, 0.0227318147, 0.1220339526, -10.0390872183
2.41750717163, -0.0740953648779, -0.558860265209, -9.74690442637, 0.17168502155, -0.32721849055, -9.8500542329, 0.114777677199, 0.226563202079, -9.66251203161, 0.0227318147, 0.1220339526, -10.0390872183
2.42765498161, -0.0725478372772, -0.557838711397, -9.74795223833, 0.18005990065, -0.30448667585, -9.89013401145, 0.116892351259, 0.223866211988, -9.66428324124, 0.05084748025, 0.07597211755, -10.0672028838
2.43788695335, -0.0725478372772, -0.557838711397, -9.74795223833, 0.18005990065, -0.30448667585, -9.89013401145, 0.116892351259, 0.223866211988, -9.66428324124, 0.05084748025, 0.07597211755, -10.0672028838
2.44831109047, -0.072847596874, -0.554012225964, -9.74558425655, 0.1639083481, -0.27457639335, -9.85663449505, 0.117042192252, 0.228321416642, -9.66375815503, 0.03409772205, 0.1459621786, -10.0456674804
2.45842909813, -0.072847596874, -0.554012225964, -9.74558425655, 0.1639083481, -0.27457639335, -9.85663449505, 0.117042192252, 0.228321416642, -9.66375815503, 0.03409772205, 0.1459621786, -10.0456674804
2.46859502792, -0.072847596874, -0.554012225964, -9.74558425655, 0.1639083481, -0.27457639335, -9.85663449505, 0.117042192252, 0.228321416642, -9.66375815503, 0.03409772205, 0.1459621786, -10.0456674804
2.47881197929, -0.0723651429833, -0.556615130038, -9.74593633235, 0.1710868159, -0.33678978095, -9.88175913235, 0.118053731976, 0.235331163073, -9.66310897954, 0.04247260115, 0.17647066675, -10.0438728635
2.48901605606, -0.0723651429833, -0.556615130038, -9.74593633235, 0.1710868159, -0.33678978095, -9.88175913235, 0.118053731976, 0.235331163073, -9.66310897954, 0.04247260115, 0.17647066675, -10.0438728635
2.4991979599, -0.070113027123, -0.558667035004, -9.74442031863, 0.18843477975, -0.3337987527, -9.8632147572, 0.119465079346, 0.237345728121, -9.66340771112, 0.04725824635, 0.1328016543, -10.0528459482
2.50938200951, -0.070113027123, -0.558667035004, -9.74442031863, 0.18843477975, -0.3337987527, -9.8632147572, 0.119465079346, 0.237345728121, -9.66340771112, 0.04725824635, 0.1328016543, -10.0528459482
2.51972699165, -0.0727249209366, -0.561385875574, -9.74695817107, 0.14416756165, -0.34277183745, -9.9026963301, 0.116978079845, 0.233688134925, -9.6660312083, 0.01136590735, 0.07716852885, -10.0767741743
2.53003096581, -0.0727249209366, -0.561385875574, -9.74695817107, 0.14416756165, -0.34277183745, -9.9026963301, 0.116978079845, 0.233688134925, -9.6660312083, 0.01136590735, 0.07716852885, -10.0767741743
2.54058909416, -0.0722547346397, -0.563367698167, -9.7473502311, 0.1710868159, -0.33798619225, -9.8835537493, 0.118309131821, 0.23039630105, -9.66615544894, 0.0454636294, 0.07716852885, -10.0540423596
2.55075407028, -0.0722547346397, -0.563367698167, -9.7473502311, 0.1710868159, -0.33798619225, -9.8835537493, 0.118309131821, 0.23039630105, -9.66615544894, 0.0454636294, 0.07716852885, -10.0540423596
2.56102705002, -0.0722547346397, -0.563367698167, -9.7473502311, 0.1710868159, -0.33798619225, -9.8835537493, 0.118309131821, 0.23039630105, -9.66615544894, 0.0454636294, 0.07716852885, -10.0540423596
2.57141900063, -0.0708912700628, -0.563348944559, -9.74581107795, 0.18005990065, -0.3194418171, -9.8644111685, 0.118755636173, 0.230492537555, -9.66697365715, 0.0382851616, 0.10827522265, -10.0612208274
2.58160305023, -0.0698522113255, -0.560715688011, -9.74785510312, 0.1782652837, -0.29252256285, -9.8991070962, 0.117967706247, 0.228226160415, -9.66423695239, 0.02691925425, 0.08434699665, -10.025926694
2.59191417694, -0.0698522113255, -0.560715688011, -9.74785510312, 0.1782652837, -0.29252256285, -9.8991070962, 0.117967706247, 0.228226160415, -9.66423695239, 0.02691925425, 0.08434699665, -10.025926694
2.60207009315, -0.0702334741355, -0.563636655461, -9.74945822487, 0.16570296505, -0.346959277, -9.8967142736, 0.116507126888, 0.228480586233, -9.661950516, 0.01974078645, 0.107677017, -10.0277213109
2.61223316193, -0.0702334741355, -0.563636655461, -9.74945822487, 0.16570296505, -0.346959277, -9.8967142736, 0.116507126888, 0.228480586233, -9.661950516, 0.01974078645, 0.107677017, -10.0277213109
2.62240195274, -0.0686333303845, -0.564230565264, -9.75019153176, 0.1842473402, -0.32602207925, -9.8895358058, 0.117822653957, 0.227533074473, -9.6581267442, 0.04486542375, 0.095712904, -10.0097751414
2.63258004189, -0.0686333303845, -0.564230565264, -9.75019153176, 0.1842473402, -0.32602207925, -9.8895358058, 0.117822653957, 0.227533074473, -9.6581267442, 0.04486542375, 0.095712904, -10.0097751414
2.64286899567, -0.0670051416266, -0.561334721425, -9.75002375482, 0.18604195715, -0.2907279459, -9.8811609267, 0.118505666702, 0.226209715889, -9.65898256529, 0.04007977855, 0.0909272588, -10.0534441539
2.65307307243, -0.0670051416266, -0.561334721425, -9.75002375482, 0.18604195715, -0.2907279459, -9.8811609267, 0.118505666702, 0.226209715889, -9.65898256529, 0.04007977855, 0.0909272588, -10.0534441539
2.66335511208, -0.0661039498903, -0.561519265492, -9.74827637453, 0.1806581063, -0.3194418171, -9.86500937415, 0.117053911499, 0.226077538662, -9.66098898961, 0.0203389921, 0.1016949605, -10.0660064725
2.67357707024, -0.0661039498903, -0.561519265492, -9.74827637453, 0.1806581063, -0.3194418171, -9.86500937415, 0.117053911499, 0.226077538662, -9.66098898961, 0.0203389921, 0.1016949605, -10.0660064725
2.68538117409, -0.0642898939573, -0.562383056032, -9.74788623674, 0.1806581063, -0.3194418171, -9.86500937415, 0.118126899501, 0.225429156409, -9.66232384375, 0.0203389921, 0.1016949605, -10.0660064725
2.69554901123, -0.0642898939573, -0.562383056032, -9.74788623674, 0.1902293967, -0.3266202849, -9.87697348715, 0.118126899501, 0.225429156409, -9.66232384375, 0.0430708068, 0.09631110965, -10.0612208274
2.7057299614, -0.0641617186731, -0.561997632718, -9.74919061901, 0.1758724611, -0.3146561719, -9.89372324535, 0.117965425063, 0.227963324124, -9.66069964598, 0.0323031051, 0.1280160091, -10.0325069561
2.71594810486, -0.0641617186731, -0.561997632718, -9.74919061901, 0.1758724611, -0.3146561719, -9.89372324535, 0.117965425063, 0.227963324124, -9.66069964598, 0.0323031051, 0.1280160091, -10.0325069561
2.72619605064, -0.0635448692322, -0.563453145676, -9.74864993155, 0.1806581063, -0.33320054705, -9.8763752815, 0.116066732406, 0.225479270328, -9.66135704286, 0.0155533469, 0.07956135145, -10.0540423596
2.7365219593, -0.0635448692322, -0.563453145676, -9.74864993155, 0.1806581063, -0.33320054705, -9.8763752815, 0.116066732406, 0.225479270328, -9.66135704286, 0.0155533469, 0.07956135145, -10.0540423596
2.74693608284, -0.0618613484437, -0.561681595117, -9.7492866921, 0.191425808, -0.3014956476, -9.88774118885, 0.1139195676, 0.224125993159, -9.66118344246, 0.01136590735, 0.0885344362, -10.0462656861
2.75707912445, -0.0618613484437, -0.561681595117, -9.7492866921, 0.191425808, -0.3014956476, -9.88774118885, 0.1139195676, 0.224125993159, -9.66118344246, 0.01136590735, 0.0885344362, -10.0462656861
2.76731204987, -0.0622267735535, -0.560668617014, -9.74897289823, 0.1734796385, -0.3074777041, -9.8787681041, 0.112237600083, 0.225437507952, -9.66261658325, 0.01375872995, 0.11425727915, -10.0624172386
2.7774579525, -0.0622267735535, -0.560668617014, -9.74897289823, 0.1734796385, -0.3074777041, -9.8787681041, 0.112237600083, 0.225437507952, -9.66261658325, 0.01375872995, 0.11425727915, -10.0624172386
2.78777909279, -0.0622267735535, -0.560668617014, -9.74897289823, 0.1734796385, -0.3074777041, -9.8787681041, 0.112237600083, 0.225437507952, -9.66261658325, 0.01375872995, 0.11425727915, -10.0624172386
2.79824304581, -0.0617407321639, -0.560338354121, -9.74827660718, 0.18125631195, -0.3134597606, -9.87458066455, 0.111788372755, 0.226088448517, -9.66378867802, 0.023928226, 0.1088734283, -10.0612208274
2.80851411819, -0.062243591823, -0.559343416638, -9.74966020286, 0.1722832272, -0.3062812928, -9.89491965665, 0.112761712609, 0.223321284282, -9.66449036751, 0.023928226, 0.1088734283, -10.0612208274
2.8187019825, -0.062243591823, -0.559343416638, -9.74966020286, 0.1722832272, -0.3062812928, -9.89491965665, 0.112761712609, 0.223321284282, -9.66449036751, 0.0370887503, 0.07477570625, -10.0576315934
2.83227801323, -0.065391683324, -0.556645578961, -9.74995943538, 0.14656038425, -0.28773691765, -9.88534836625, 0.111821732614, 0.226595661959, -9.66547508386, 0.01974078645, 0.13339985995, -10.0612208274
2.84250307083, -0.065391683324, -0.556645578961, -9.74995943538, 0.14656038425, -0.28773691765, -9.88534836625, 0.111821732614, 0.226595661959, -9.66547508386, 0.01974078645, 0.13339985995, -10.0612208274
2.85292100906, -0.0672219823046, -0.553403540692, -9.74928274106, 0.15613167465, -0.27936203855, -9.87577707585, 0.111414092033, 0.227483735622, -9.66383009192, 0.023928226, 0.1124626622, -10.0354979844
2.86327004433, -0.0672219823046, -0.553403540692, -9.74928274106, 0.15613167465, -0.27936203855, -9.87577707585, 0.111414092033, 0.227483735622, -9.66383009192, 0.023928226, 0.1124626622, -10.0354979844
2.87344503403, -0.0698095482968, -0.554497486312, -9.74855546572, 0.1471585899, -0.3206382284, -9.87458066455, 0.111297696319, 0.233224280909, -9.66452764002, 0.0263210486, 0.1627119368, -10.0576315934
2.8836710453, -0.0698095482968, -0.554497486312, -9.74855546572, 0.1471585899, -0.3206382284, -9.87458066455, 0.111297696319, 0.233224280909, -9.66452764002, 0.0263210486, 0.1627119368, -10.0576315934
2.89382815361, -0.0698095482968, -0.554497486312, -9.74855546572, 0.1471585899, -0.3206382284, -9.87458066455, 0.111297696319, 0.233224280909, -9.66452764002, 0.0263210486, 0.1627119368, -10.0576315934
2.90399503708, -0.0700697044884, -0.558679833072, -9.75050242779, 0.16689937635, -0.35353953915, -9.90090171315, 0.111631281592, 0.233037719428, -9.663860382, 0.03050848815, 0.10827522265, -10.0444710691
2.91422605515, -0.0700697044884, -0.558679833072, -9.75050242779, 0.16689937635, -0.35353953915, -9.90090171315, 0.111631281592, 0.233037719428, -9.663860382, 0.03050848815, 0.10827522265, -10.0444710691
2.92447495461, -0.0699904127576, -0.562618370376, -9.74965318378, 0.1698904046, -0.3553341561, -9.87458066455, 0.112620330563, 0.233811010093, -9.66814572517, 0.0370887503, 0.11784651305, -10.0941221381
2.93466496468, -0.0699904127576, -0.562618370376, -9.74965318378, 0.1698904046, -0.3553341561, -9.87458066455, 0.112620330563, 0.233811010093, -9.66814572517, 0.0370887503, 0.11784651305, -10.0941221381
2.9449031353, -0.07186233048, -0.555057981603, -9.74794286059, 0.15134602945, -0.24107687695, -9.86500937415, 0.11419929686, 0.233095177695, -9.6679407822, 0.04366901245, 0.10348957745, -10.0528459482
2.95512008667, -0.07186233048, -0.555057981603, -9.74794286059, 0.15134602945, -0.24107687695, -9.86500937415, 0.11419929686, 0.233095177695, -9.6679407822, 0.04366901245, 0.10348957745, -10.0528459482
2.96528410912, -0.070914225083, -0.559823837974, -9.74634444449, 0.17647066675, -0.3601198013, -9.8644111685, 0.114618443293, 0.232450928537, -9.6681683953, 0.03409772205, 0.10348957745, -10.0570333878
2.97545409203, -0.070914225083, -0.559823837974, -9.74634444449, 0.17647066675, -0.3601198013, -9.8644111685, 0.114618443293, 0.232450928537, -9.6681683953, 0.03409772205, 0.10348957745, -10.0570333878
2.9856159687, -0.0710012271353, -0.558008226005, -9.74390074119, 0.167497582, -0.29730820805, -9.85424167245, 0.115434016497, 0.231047557796, -9.6689030408, 0.0382851616, 0.09511469835, -10.0624172386
2.9957909584, -0.0710012271353, -0.558008226005, -9.74390074119, 0.167497582, -0.29730820805, -9.85424167245, 0.115434016497, 0.231047557796, -9.6689030408, 0.0382851616, 0.09511469835, -10.0624172386
3.00593709946, -0.070264604994, -0.555618332612, -9.74353429017, 0.17527425545, -0.2895315346, -9.8727860476, 0.115479210157, 0.231961039875, -9.66768051077, 0.03170489945, 0.1172483074, -10.0432746578
3.01613402367, -0.070264604994, -0.555618332612, -9.74353429017, 0.17527425545, -0.2895315346, -9.8727860476, 0.115479210157, 0.231961039875, -9.66768051077, 0.03170489945, 0.1172483074, -10.0432746578
3.02649307251, -0.0699150773701, -0.550734766777, -9.74409136261, 0.1722832272, -0.26141586905, -9.88175913235, 0.115332023844, 0.230489008501, -9.66634476986, 0.0299102825, 0.09391828705, -10.0408818352
3.03665804863, -0.0699150773701, -0.550734766777, -9.74409136261, 0.1722832272, -0.26141586905, -9.88175913235, 0.115332023844, 0.230489008501, -9.66634476986, 0.0299102825, 0.09391828705, -10.0408818352
3.04685115814, -0.0682840868349, -0.538432280881, -9.74465185304, 0.18484554585, -0.18005990065, -9.882357338, 0.1162640996, 0.226693540769, -9.66843909728, 0.04007977855, 0.06879364975, -10.0743813517
3.05709409714, -0.0682840868349, -0.538432280881, -9.74465185304, 0.18484554585, -0.18005990065, -9.882357338, 0.1162640996, 0.226693540769, -9.66843909728, 0.04007977855, 0.06879364975, -10.0743813517
3.06727600098, -0.0703266371496, -0.53643015502, -9.74557017099, 0.15134602945, -0.27337998205, -9.88654477755, 0.118104891016, 0.227513001802, -9.66897007468, 0.04965106895, 0.11186445655, -10.0606226217
3.07753109932, -0.0703266371496, -0.53643015502, -9.74557017099, 0.15134602945, -0.27337998205, -9.88654477755, 0.118104891016, 0.227513001802, -9.66897007468, 0.04965106895, 0.11186445655, -10.0606226217
3.08776116371, -0.0703266371496, -0.53643015502, -9.74557017099, 0.15134602945, -0.27337998205, -9.88654477755, 0.118104891016, 0.227513001802, -9.66897007468, 0.04965106895, 0.11186445655, -10.0606226217
3.0981991291, -0.0696574740068, -0.542186667949, -9.74616015625, 0.17527425545, -0.35114671655, -9.88415195495, 0.118008237629, 0.22395630999, -9.66950682032, 0.03290131075, 0.0681954441, -10.0612208274
3.1083509922, -0.0696574740068, -0.542186667949, -9.74616015625, 0.17527425545, -0.35114671655, -9.88415195495, 0.118008237629, 0.22395630999, -9.66950682032, 0.03290131075, 0.0681954441, -10.0612208274
3.11862397194, -0.0685537354932, -0.543530174743, -9.74757802134, 0.18005990065, -0.31166514365, -9.8931250397, 0.11792124958, 0.22510831885, -9.66916576782, 0.03290131075, 0.1124626622, -10.0528459482
3.12924814224, -0.0683126083587, -0.545553315218, -9.74648909096, 0.17288143285, -0.32004002275, -9.8691968137, 0.120097287615, 0.226439250574, -9.66685737765, 0.05443671415, 0.11545369045, -10.0325069561
3.13937306404, -0.0683126083587, -0.545553315218, -9.74648909096, 0.17288143285, -0.32004002275, -9.8691968137, 0.120097287615, 0.226439250574, -9.66685737765, 0.05443671415, 0.11545369045, -10.0325069561
3.14955210686, -0.0683126083587, -0.545553315218, -9.74648909096, 0.17288143285, -0.32004002275, -9.8691968137, 0.120097287615, 0.226439250574, -9.66685737765, 0.05443671415, 0.11545369045, -10.0325069561
3.15970301628, -0.0685343991622, -0.548188126005, -9.74533167795, 0.1686939933, -0.32841490185, -9.86740219675, 0.120177115781, 0.228342986124, -9.66319044533, 0.03649054465, 0.12263215825, -10.0163554036
3.16987514496, -0.0685343991622, -0.548188126005, -9.74533167795, 0.1686939933, -0.32841490185, -9.86740219675, 0.120177115781, 0.228342986124, -9.66319044533, 0.03649054465, 0.12263215825, -10.0163554036
3.18005609512, -0.0701131130196, -0.544628998231, -9.74653676475, 0.155533469, -0.26739792555, -9.89013401145, 0.120186340928, 0.22952692537, -9.66153845337, 0.035892339, 0.1172483074, -10.0331051618
3.19019913673, -0.0701131130196, -0.544628998231, -9.74653676475, 0.155533469, -0.26739792555, -9.89013401145, 0.120186340928, 0.22952692537, -9.66153845337, 0.035892339, 0.1172483074, -10.0331051618
3.20040416718, -0.0697787345931, -0.548112083338, -9.74649796362, 0.1722832272, -0.3361915753, -9.8787681041, 0.118879619314, 0.229121851944, -9.66240629936, 0.02333002035, 0.10229316615, -10.0570333878
3.21076202393, -0.0697787345931, -0.548112083338, -9.74649796362, 0.1722832272, -0.3361915753, -9.8787681041, 0.118879619314, 0.229121851944, -9.66240629936, 0.02333002035, 0.10229316615, -10.0570333878
3.2209789753, -0.067910632493, -0.547990922493, -9.74664041827, 0.18723836845, -0.3026920589, -9.88056272105, 0.117891430468, 0.228169038362, -9.66342282462, 0.0251246373, 0.09631110965, -10.0594262104
3.23112106323, -0.067910632493, -0.547990922493, -9.74664041827, 0.18723836845, -0.3026920589, -9.88056272105, 0.117891430468, 0.228169038362, -9.66342282462, 0.0251246373, 0.09631110965, -10.0594262104
3.24132394791, -0.067910632493, -0.547990922493, -9.74664041827, 0.18723836845, -0.3026920589, -9.88056272105, 0.117891430468, 0.228169038362, -9.66342282462, 0.0251246373, 0.09631110965, -10.0594262104
3.25158905983, -0.0669815781308, -0.54381195593, -9.74676862746, 0.18005990065, -0.2608176634, -9.88056272105, 0.118003983741, 0.228723300136, -9.66139439892, 0.0346959277, 0.11066804525, -10.0295159279
3.26181817055, -0.0657066239802, -0.544934792185, -9.7470613914, 0.1842473402, -0.311066938, -9.882357338, 0.117917421081, 0.227280918986, -9.66610293831, 0.03290131075, 0.0909272588, -10.0959167551
3.27198004723, -0.0657066239802, -0.544934792185, -9.7470613914, 0.1842473402, -0.311066938, -9.882357338, 0.117917421081, 0.227280918986, -9.66610293831, 0.03290131075, 0.0909272588, -10.0959167551
3.2821161747, -0.0666278184461, -0.542340556934, -9.74679275192, 0.16450655375, -0.2739781877, -9.87697348715, 0.119279779338, 0.230335807442, -9.66657320177, 0.0466600407, 0.1351944769, -10.0576315934
3.29228806496, -0.0666278184461, -0.542340556934, -9.74679275192, 0.16450655375, -0.2739781877, -9.87697348715, 0.119279779338, 0.230335807442, -9.66657320177, 0.0466600407, 0.1351944769, -10.0576315934
3.30252504349, -0.0666278184461, -0.542340556934, -9.74679275192, 0.16450655375, -0.2739781877, -9.87697348715, 0.119279779338, 0.230335807442, -9.66657320177, 0.0466600407, 0.1351944769, -10.0576315934
3.3130300045, -0.0684598768357, -0.54570363573, -9.74424509266, 0.15493526335, -0.3326023414, -9.8536434668, 0.121132103791, 0.230261619058, -9.66305241898, 0.0526420972, 0.1064806057, -10.0175518149
3.32318902016, -0.0686042543308, -0.549893241448, -9.7468004677, 0.16929219895, -0.3445664544, -9.9026963301, 0.121734652362, 0.230488973262, -9.66206175531, 0.04247260115, 0.10947163395, -10.0396854239
3.33336400986, -0.0686042543308, -0.549893241448, -9.7468004677, 0.16929219895, -0.3445664544, -9.9026963301, 0.121734652362, 0.230488973262, -9.66206175531, 0.04247260115, 0.10947163395, -10.0396854239
3.3435959816, -0.0689849399191, -0.552501051793, -9.74643967015, 0.16689937635, -0.3326023414, -9.87577707585, 0.119083315762, 0.228340602051, -9.66164108576, 0.011964113, 0.08554340795, -10.0444710691
3.35380411148, -0.0689849399191, -0.552501051793, -9.74643967015, 0.16689937635, -0.3326023414, -9.87577707585, 0.119083315762, 0.228340602051, -9.66164108576, 0.011964113, 0.08554340795, -10.0444710691
3.36398696899, -0.0678230818929, -0.552813120202, -9.74268568935, 0.18125631195, -0.31166514365, -9.84108114815, 0.119264541113, 0.22670119171, -9.66179227688, 0.03649054465, 0.0885344362, -10.04985492
3.37424612045, -0.0678230818929, -0.552813120202, -9.74268568935, 0.18125631195, -0.31166514365, -9.84108114815, 0.119264541113, 0.22670119171, -9.66179227688, 0.03649054465, 0.0885344362, -10.04985492
3.38456201553, -0.0677177065791, -0.55251256437, -9.74320937143, 0.1722832272, -0.30568308715, -9.88056272105, 0.120617427771, 0.230814073642, -9.65939711223, 0.047856452, 0.14536397295, -10.024132077
3.39475297928, -0.0677177065791, -0.55251256437, -9.74320937143, 0.1722832272, -0.30568308715, -9.88056272105, 0.120617427771, 0.230814073642, -9.65939711223, 0.047856452, 0.14536397295, -10.024132077
3.40502595901, -0.066494512505, -0.547648866659, -9.7432076835, 0.1830509289, -0.2584248408, -9.87577707585, 0.121083583337, 0.230927357637, -9.66277486511, 0.0406779842, 0.1088734283, -10.0803634081
3.41531896591, -0.066494512505, -0.547648866659, -9.7432076835, 0.1830509289, -0.2584248408, -9.87577707585, 0.121083583337, 0.230927357637, -9.66277486511, 0.0406779842, 0.1088734283, -10.0803634081
3.42552495003, -0.0681518421068, -0.550364831003, -9.74503904632, 0.1830509289, -0.2584248408, -9.87577707585, 0.121083583337, 0.230927357637, -9.66277486511, 0.0406779842, 0.1088734283, -10.0803634081
3.4356880188, -0.0681518421068, -0.550364831003, -9.74503904632, 0.1567298803, -0.3314059301, -9.894321451, 0.120125478897, 0.230323416235, -9.66257721442, 0.0275174599, 0.1016949605, -10.0474620974
3.44598698616, -0.0657568781882, -0.54693688317, -9.74645077196, 0.1938186306, -0.27098715945, -9.8919286284, 0.11951366571, 0.228662198726, -9.66657881257, 0.0299102825, 0.09032905315, -10.0899346985
3.45623207092, -0.0657568781882, -0.54693688317, -9.74645077196, 0.1938186306, -0.27098715945, -9.8919286284, 0.11951366571, 0.228662198726, -9.66657881257, 0.0299102825, 0.09032905315, -10.0899346985
3.46670794487, -0.0656700638629, -0.548851919762, -9.74659794578, 0.17407784415, -0.32243284535, -9.88056272105, 0.118712553033, 0.231578959208, -9.66441138598, 0.0275174599, 0.1351944769, -10.0313105448
3.47686314583, -0.0656700638629, -0.548851919762, -9.74659794578, 0.17407784415, -0.32243284535, -9.88056272105, 0.118712553033, 0.231578959208, -9.66441138598, 0.0275174599, 0.1351944769, -10.0313105448
3.4871840477, -0.0654038715882, -0.554529091017, -9.74554789773, 0.1758724611, -0.36311082955, -9.86859860805, 0.117114868793, 0.232556950645, -9.66045925912, 0.0191425808, 0.1184447187, -10.0109715527
3.49767112732, -0.0654038715882, -0.554529091017, -9.74554789773, 0.1758724611, -0.36311082955, -9.86859860805, 0.115050750954, 0.23255477169, -9.65984564337, 0.0191425808, 0.1184447187, -10.0109715527
3.50833797455, -0.064976239159, -0.553417378964, -9.74856424451, 0.17766707805, -0.299102825, -9.9086783866, 0.115050750954, 0.23255477169, -9.65984564337, 0.0131605243, 0.10947163395, -10.0408818352
3.51858496666, -0.064976239159, -0.553417378964, -9.74856424451, 0.17766707805, -0.299102825, -9.9086783866, 0.115050750954, 0.23255477169, -9.65984564337, 0.0131605243, 0.10947163395, -10.0408818352
3.52896213531, -0.0644033105908, -0.551195861575, -9.74773144316, 0.179461695, -0.28654050635, -9.8727860476, 0.117263358044, 0.231729264133, -9.66141256407, 0.05204389155, 0.10109675485, -10.0624172386
3.53918600082, -0.0650787176317, -0.551987299446, -9.74905130479, 0.179461695, -0.28654050635, -9.8727860476, 0.117263358044, 0.231729264133, -9.66141256407, 0.05204389155, 0.10109675485, -10.0624172386
3.54931902885, -0.0650787176317, -0.551987299446, -9.74905130479, 0.16809578765, -0.31525437755, -9.89372324535, 0.116123694314, 0.2456924948, -9.65905537071, 0.02213360905, 0.25064816735, -10.024132077
3.5595331192, -0.0650787176317, -0.551987299446, -9.74905130479, 0.16809578765, -0.31525437755, -9.89372324535, 0.116123694314, 0.2456924948, -9.65905537071, 0.02213360905, 0.25064816735, -10.024132077
3.56995797157, -0.0673164319454, -0.55142047525, -9.75159906041, 0.15254244075, -0.30209385325, -9.9074819753, 0.114972756552, 0.243376740682, -9.66193750402, 0.02093719775, 0.0993021379, -10.0749795573
3.58023095131, -0.0673164319454, -0.55142047525, -9.75159906041, 0.15254244075, -0.30209385325, -9.9074819753, 0.114972756552, 0.243376740682, -9.66193750402, 0.02093719775, 0.0993021379, -10.0749795573
3.59039902687, -0.0673870945476, -0.536898174126, -9.75158615673, 0.1710868159, -0.1579262916, -9.88415195495, 0.114124773173, 0.245527943967, -9.66335410462, 0.0227318147, 0.1423729447, -10.0630154443
3.60054898262, -0.0673870945476, -0.536898174126, -9.75158615673, 0.1710868159, -0.1579262916, -9.88415195495, 0.114124773173, 0.245527943967, -9.66335410462, 0.0227318147, 0.1423729447, -10.0630154443
3.61070394516, -0.0660089022947, -0.539758939882, -9.75240229655, 0.18484554585, -0.3218346397, -9.89252683405, 0.111169881054, 0.243640418181, -9.66027296349, 0.00179461695, 0.10348957745, -10.0187482262
3.62091612816, -0.0660089022947, -0.539758939882, -9.75240229655, 0.18484554585, -0.3218346397, -9.89252683405, 0.111169881054, 0.243640418181, -9.66027296349, 0.00179461695, 0.10348957745, -10.0187482262
3.63105607033, -0.0634521135935, -0.543380180384, -9.75136306567, 0.1974078645, -0.3326023414, -9.87458066455, 0.113269613516, 0.245059356717, -9.65838292599, 0.04725824635, 0.1351944769, -10.0277213109
3.64124298096, -0.0634521135935, -0.543380180384, -9.75136306567, 0.1974078645, -0.3326023414, -9.87458066455, 0.113269613516, 0.245059356717, -9.65838292599, 0.04725824635, 0.1351944769, -10.0277213109
3.65149903297, -0.0644733861767, -0.539952996732, -9.74835837503, 0.16570296505, -0.26380869165, -9.8536434668, 0.114407930305, 0.238865658166, -9.65797694356, 0.04007977855, 0.05922235935, -10.0408818352
3.6618001461, -0.0644733861767, -0.539952996732, -9.74835837503, 0.16570296505, -0.26380869165, -9.8536434668, 0.114407930305, 0.238865658166, -9.65797694356, 0.04007977855, 0.05922235935, -10.0408818352
3.67201399803, -0.0636999970641, -0.545066516789, -9.74861041466, 0.1818545176, -0.3481556883, -9.8835537493, 0.115244554808, 0.236997288712, -9.658317951, 0.0382851616, 0.0969093153, -10.048060303
3.68223500252, -0.0636999970641, -0.545066516789, -9.74861041466, 0.1818545176, -0.3481556883, -9.8835537493, 0.115244554808, 0.236997288712, -9.658317951, 0.0382851616, 0.0969093153, -10.048060303
3.69245505333, -0.0638815573119, -0.54798257438, -9.75197088721, 0.1734796385, -0.33080772445, -9.91525864875, 0.114557252211, 0.235315756204, -9.6570943425, 0.02452643165, 0.0969093153, -10.0325069561
3.70272111893, -0.0638815573119, -0.54798257438, -9.75197088721, 0.1734796385, -0.33080772445, -9.91525864875, 0.114557252211, 0.235315756204, -9.6570943425, 0.02452643165, 0.0969093153, -10.0325069561
3.71305894852, -0.0628539187825, -0.550897734912, -9.75174342517, 0.18484554585, -0.3337987527, -9.882357338, 0.114627502097, 0.233331778947, -9.65563989904, 0.0311066938, 0.0921236701, -10.0289177222
3.72320508957, -0.0628539187825, -0.550897734912, -9.75174342517, 0.18484554585, -0.3337987527, -9.882357338, 0.114627502097, 0.233331778947, -9.65563989904, 0.0311066938, 0.0921236701, -10.0289177222
3.73338198662, -0.0629947139372, -0.55142827675, -9.75207083636, 0.1746760498, -0.3122633493, -9.88774118885, 0.113062601737, 0.234428612159, -9.654213168, 0.0155533469, 0.12143574695, -10.0277213109
3.74360704422, -0.0629947139372, -0.55142827675, -9.75207083636, 0.1746760498, -0.3122633493, -9.88774118885, 0.113062601737, 0.234428612159, -9.654213168, 0.0155533469, 0.12143574695, -10.0277213109
3.75384402275, -0.0628706837337, -0.557022237526, -9.75378451181, 0.1770688724, -0.3649054465, -9.90209812445, 0.114221619704, 0.244886546781, -9.65381209958, 0.04007977855, 0.2177468566, -10.0366943957
3.76398205757, -0.0628706837337, -0.557022237526, -9.75378451181, 0.1770688724, -0.3649054465, -9.90209812445, 0.114221619704, 0.244886546781, -9.65381209958, 0.04007977855, 0.2177468566, -10.0366943957
3.77421212196, -0.0612545814951, -0.561882377005, -9.75355306299, 0.191425808, -0.36311082955, -9.88415195495, 0.112258966168, 0.241886665716, -9.65527598304, 0.01136590735, 0.09152546445, -10.0552387708
3.78480505943, -0.0612545814951, -0.561882377005, -9.75355306299, 0.191425808, -0.36311082955, -9.88415195495, 0.112258966168, 0.241886665716, -9.65527598304, 0.01136590735, 0.09152546445, -10.0552387708
3.79510617256, -0.0617433697604, -0.555965414551, -9.75482288965, 0.191425808, -0.36311082955, -9.88415195495, 0.11205808304, 0.239598546007, -9.65553389071, 0.01136590735, 0.09152546445, -10.0552387708
3.80584311485, -0.0617433697604, -0.555965414551, -9.75482288965, 0.17288143285, -0.2572284295, -9.8991070962, 0.11205808304, 0.239598546007, -9.65553389071, 0.0263210486, 0.095712904, -10.0444710691
3.81601905823, -0.0622459656598, -0.556977598005, -9.75602485887, 0.1722832272, -0.32243284535, -9.89970530185, 0.110750124586, 0.241362847011, -9.65611920343, 0.0155533469, 0.13459627125, -10.048060303
3.82629704475, -0.0622459656598, -0.556977598005, -9.75602485887, 0.1722832272, -0.32243284535, -9.89970530185, 0.110750124586, 0.241362847011, -9.65611920343, 0.0155533469, 0.13459627125, -10.048060303
3.83646512032, -0.0605669623072, -0.555272184812, -9.75415036996, 0.1926222193, -0.2955135911, -9.86979501935, 0.113705895323, 0.237009418178, -9.65699918069, 0.0550349198, 0.0741775006, -10.0516495369
3.8465821743, -0.0605669623072, -0.555272184812, -9.75415036996, 0.1926222193, -0.2955135911, -9.86979501935, 0.113705895323, 0.237009418178, -9.65699918069, 0.0550349198, 0.0741775006, -10.0516495369
3.85672712326, -0.0605669623072, -0.555272184812, -9.75415036996, 0.1926222193, -0.2955135911, -9.86979501935, 0.113705895323, 0.237009418178, -9.65699918069, 0.0550349198, 0.0741775006, -10.0516495369
3.86689305305, -0.0630051063108, -0.556644399941, -9.75494658936, 0.15493526335, -0.3254238736, -9.89491965665, 0.114424862718, 0.238209085466, -9.65873301572, 0.03649054465, 0.12622139215, -10.0612208274
3.87709903717, -0.0641964525436, -0.558693377916, -9.75383030487, 0.16450655375, -0.3337987527, -9.8763752815, 0.112817606094, 0.237876992029, -9.66041119919, 0.01495514125, 0.11186445655, -10.0624172386
3.88745999336, -0.0641964525436, -0.558693377916, -9.75383030487, 0.16450655375, -0.3337987527, -9.8763752815, 0.112817606094, 0.237876992029, -9.66041119919, 0.01495514125, 0.11186445655, -10.0624172386
3.89778804779, -0.0659582152203, -0.557223378913, -9.75329865062, 0.16450655375, -0.3337987527, -9.8763752815, 0.112817606094, 0.237876992029, -9.66041119919, 0.01495514125, 0.11186445655, -10.0624172386
3.90809106827, -0.0659582152203, -0.557223378913, -9.75329865062, 0.1579262916, -0.29970103065, -9.8811609267, 0.114251604434, 0.236636911937, -9.66198043028, 0.04247260115, 0.10229316615, -10.0630154443
3.91911411285, -0.0659582152203, -0.557223378913, -9.75329865062, 0.1579262916, -0.29970103065, -9.8811609267, 0.114251604434, 0.236636911937, -9.66198043028, 0.04247260115, 0.10229316615, -10.0630154443
3.92936301231, -0.0656005213492, -0.558284191151, -9.75287928702, 0.17647066675, -0.3242274623, -9.88175913235, 0.115604823142, 0.236050262604, -9.66115583145, 0.0430708068, 0.107677017, -10.0402836296
3.93977713585, -0.0656005213492, -0.558284191151, -9.75287928702, 0.17647066675, -0.3242274623, -9.88175913235, 0.115604823142, 0.236050262604, -9.66115583145, 0.0430708068, 0.107677017, -10.0402836296
3.95000314713, -0.06477710518, -0.558250512585, -9.75415736606, 0.18125631195, -0.31405796625, -9.89850889055, 0.117323681597, 0.236757597951, -9.66518183596, 0.047856452, 0.12023933565, -10.0887382872
3.96047902107, -0.06477710518, -0.558250512585, -9.75415736606, 0.18125631195, -0.31405796625, -9.89850889055, 0.117323681597, 0.236757597951, -9.66518183596, 0.047856452, 0.12023933565, -10.0887382872
3.97072696686, -0.0640360306277, -0.570662534242, -9.75081412015, 0.18125631195, -0.44207397535, -9.85304526115, 0.120811880476, 0.236982426515, -9.66327183897, 0.06640082715, 0.1160518961, -10.0325069561
3.98098111153, -0.0640360306277, -0.570662534242, -9.75081412015, 0.18125631195, -0.44207397535, -9.85304526115, 0.120811880476, 0.236982426515, -9.66327183897, 0.06640082715, 0.1160518961, -10.0325069561
3.99119496346, -0.062240707239, -0.574042360569, -9.74993370691, 0.19202401365, -0.36191441825, -9.87458066455, 0.120194047333, 0.237243596972, -9.66437840817, 0.03050848815, 0.11665010175, -10.0612208274
4.00138711929, -0.062240707239, -0.574042360569, -9.74993370691, 0.19202401365, -0.36191441825, -9.87458066455, 0.120194047333, 0.237243596972, -9.66437840817, 0.03050848815, 0.11665010175, -10.0612208274
4.0115339756, -0.0614398401776, -0.573828266822, -9.75369397725, 0.19202401365, -0.36191441825, -9.87458066455, 0.120765161145, 0.239361042379, -9.66625730999, 0.04127618985, 0.13579268255, -10.0701939121
4.02173995972, -0.0614398401776, -0.573828266822, -9.75369397725, 0.1842473402, -0.32841490185, -9.9206424996, 0.120765161145, 0.239361042379, -9.66625730999, 0.04127618985, 0.13579268255, -10.0701939121
4.03204417229, -0.0605310004404, -0.567705124966, -9.75524533861, 0.18604195715, -0.26739792555, -9.90209812445, 0.121279163575, 0.234678371259, -9.66435749753, 0.04127618985, 0.06879364975, -10.0337033674
4.04233598709, -0.0605310004404, -0.567705124966, -9.75524533861, 0.18604195715, -0.26739792555, -9.90209812445, 0.121279163575, 0.234678371259, -9.66435749753, 0.04127618985, 0.06879364975, -10.0337033674
4.05255007744, -0.062721994788, -0.564519966897, -9.75433568009, 0.18604195715, -0.26739792555, -9.90209812445, 0.121279163575, 0.234678371259, -9.66435749753, 0.04127618985, 0.06879364975, -10.0337033674
4.06286215782, -0.062721994788, -0.564519966897, -9.75433568009, 0.15732808595, -0.29132615155, -9.8787681041, 0.119174337472, 0.235346421491, -9.66317746004, 0.0167497582, 0.1184447187, -10.0390872183
4.0729970932, -0.062721994788, -0.564519966897, -9.75433568009, 0.15732808595, -0.29132615155, -9.8787681041, 0.119174337472, 0.235346421491, -9.66317746004, 0.0167497582, 0.1184447187, -10.0390872183
4.08315014839, -0.0644431438583, -0.562234742036, -9.75499511803, 0.15972090855, -0.29730820805, -9.89372324535, 0.11759309499, 0.232065233209, -9.66276295195, 0.01974078645, 0.0789631458, -10.0456674804
4.09354496002, -0.0640488977415, -0.566166638883, -9.75683024188, 0.1782652837, -0.35892339, -9.906285564, 0.116483077767, 0.231406328999, -9.6653331931, 0.0227318147, 0.10229316615, -10.0755777629
4.1037671566, -0.0640488977415, -0.566166638883, -9.75683024188, 0.1782652837, -0.35892339, -9.906285564, 0.116483077767, 0.231406328999, -9.6653331931, 0.0227318147, 0.10229316615, -10.0755777629
4.11396503448, -0.0653239242131, -0.561681785922, -9.75570296781, 0.1627119368, -0.2763710103, -9.87816989845, 0.117237427929, 0.2359898932, -9.66564496721, 0.0394815729, 0.15493526335, -10.0552387708
4.12410402298, -0.0653239242131, -0.561681785922, -9.75570296781, 0.1627119368, -0.2763710103, -9.87816989845, 0.117237427929, 0.2359898932, -9.66564496721, 0.0394815729, 0.15493526335, -10.0552387708
4.13489794731, -0.0648416000608, -0.56311074182, -9.75439279502, 0.1627119368, -0.2763710103, -9.87816989845, 0.116162977412, 0.23523264674, -9.66733834715, 0.0394815729, 0.15493526335, -10.0552387708
4.14509105682, -0.0648416000608, -0.56311074182, -9.75439279502, 0.1782652837, -0.3326023414, -9.8751788702, 0.116162977412, 0.23523264674, -9.66733834715, 0.0227318147, 0.1052841944, -10.0695957064
4.15527105331, -0.0637806437172, -0.563001400367, -9.75279976294, 0.1842473402, -0.3182454058, -9.87099143065, 0.115571693161, 0.235139372426, -9.66733187391, 0.0263210486, 0.1112662509, -10.0540423596
4.16540694237, -0.0637806437172, -0.563001400367, -9.75279976294, 0.1842473402, -0.3182454058, -9.87099143065, 0.115571693161, 0.235139372426, -9.66733187391, 0.0263210486, 0.1112662509, -10.0540423596
4.17562413216, -0.0621362319409, -0.561391307818, -9.75308066558, 0.1842473402, -0.3182454058, -9.87099143065, 0.114726436323, 0.238173137286, -9.66720831606, 0.0263210486, 0.1112662509, -10.0540423596
4.18579101562, -0.0621362319409, -0.561391307818, -9.75308066558, 0.19082760235, -0.3026920589, -9.8883393945, 0.114726436323, 0.238173137286, -9.66720831606, 0.02333002035, 0.14297115035, -10.0528459482
4.19599199295, -0.0621362319409, -0.561391307818, -9.75308066558, 0.19082760235, -0.3026920589, -9.8883393945, 0.114726436323, 0.238173137286, -9.66720831606, 0.02333002035, 0.14297115035, -10.0528459482
4.20616698265, -0.0632264062287, -0.557674696664, -9.75061371763, 0.1663011707, -0.27936203855, -9.8608219346, 0.115781691034, 0.242844742406, -9.67192412342, 0.0406779842, 0.1627119368, -10.1018988115
4.21637606621, -0.0632264062287, -0.557674696664, -9.75061371763, 0.1663011707, -0.27936203855, -9.8608219346, 0.115781691034, 0.242844742406, -9.67192412342, 0.0406779842, 0.1627119368, -10.1018988115
4.22652506828, -0.0624523421896, -0.552062218763, -9.74721096, 0.1830509289, -0.2560320182, -9.8488578216, 0.116606179868, 0.241166712027, -9.67263639193, 0.0394815729, 0.1028913718, -10.0660064725
4.23680996895, -0.0624523421896, -0.552062218763, -9.74721096, 0.1830509289, -0.2560320182, -9.8488578216, 0.116606179868, 0.241166712027, -9.67263639193, 0.0394815729, 0.1028913718, -10.0660064725
4.24726009369, -0.0615676251725, -0.551197193935, -9.74781424203, 0.18484554585, -0.299102825, -9.8859465719, 0.115532233956, 0.237950566939, -9.67204124825, 0.02213360905, 0.08554340795, -10.0534441539
4.25747513771, -0.0615676251725, -0.551197193935, -9.74781424203, 0.18484554585, -0.299102825, -9.8859465719, 0.115532233956, 0.237950566939, -9.67204124825, 0.02213360905, 0.08554340795, -10.0534441539
4.2679810524, -0.061335558003, -0.554953727312, -9.75036745348, 0.179461695, -0.3457628657, -9.906285564, 0.115943327083, 0.236409005607, -9.67274180427, 0.03529413335, 0.0993021379, -10.0660064725
4.27820014954, -0.061335558003, -0.554953727312, -9.75036745348, 0.179461695, -0.3457628657, -9.906285564, 0.115943327083, 0.236409005607, -9.67274180427, 0.03529413335, 0.0993021379, -10.0660064725
4.28859496117, -0.061001324629, -0.554904244689, -9.74911783034, 0.1806581063, -0.31046873235, -9.870393225, 0.117440474537, 0.236727518155, -9.67490281988, 0.04606183505, 0.11665010175, -10.0815598194
4.29876613617, -0.061001324629, -0.554904244689, -9.74911783034, 0.1806581063, -0.31046873235, -9.870393225, 0.117440474537, 0.236727518155, -9.67490281988, 0.04606183505, 0.11665010175, -10.0815598194
4.30904316902, -0.0627064813333, -0.554743426849, -9.74923479921, 0.1615155255, -0.30927232105, -9.88295554365, 0.119852450684, 0.233484694455, -9.67561154858, 0.0562313311, 0.08075776275, -10.0689975008
4.31925415993, -0.0627064813333, -0.554743426849, -9.74923479921, 0.1615155255, -0.30927232105, -9.88295554365, 0.119852450684, 0.233484694455, -9.67561154858, 0.0562313311, 0.08075776275, -10.0689975008
4.32940602303, -0.0498859228786, -0.55006363507, -9.7495765721, 0.29850461935, -0.26261228035, -9.88534836625, 0.118266017083, 0.232213246122, -9.67371816777, 0.0203389921, 0.09750752095, -10.0432746578
4.33958005905, -0.0498859228786, -0.55006363507, -9.7495765721, 0.29850461935, -0.26261228035, -9.88534836625, 0.118266017083, 0.232213246122, -9.67371816777, 0.0203389921, 0.09750752095, -10.0432746578
4.34974098206, -0.0503832207139, -0.553177681714, -9.74911553978, 0.18364913455, -0.33798619225, -9.8775716928, 0.119092554122, 0.232657210869, -9.67160206325, 0.0418743955, 0.1136590735, -10.0390872183
4.35999703407, -0.0503832207139, -0.553177681714, -9.74911553978, 0.18364913455, -0.33798619225, -9.8775716928, 0.119092554122, 0.232657210869, -9.67160206325, 0.0418743955, 0.1136590735, -10.0390872183
4.37035107613, -0.0499531783166, -0.554119788011, -9.74704510442, 0.19202401365, -0.31884361145, -9.8608219346, 0.11908499503, 0.228291974401, -9.67146354825, 0.0346959277, 0.06520441585, -10.0570333878
4.38050198555, -0.0499531783166, -0.554119788011, -9.74704510442, 0.19202401365, -0.31884361145, -9.8608219346, 0.11908499503, 0.228291974401, -9.67146354825, 0.0346959277, 0.06520441585, -10.0570333878
4.39066195488, -0.0502556912261, -0.55554910108, -9.74825622425, 0.1854437515, -0.32482566795, -9.8919286284, 0.117951028208, 0.227657447574, -9.67186867846, 0.023928226, 0.09870393225, -10.0624172386
4.4008641243, -0.0502556912261, -0.55554910108, -9.74825622425, 0.1854437515, -0.32482566795, -9.8919286284, 0.117951028208, 0.227657447574, -9.67186867846, 0.023928226, 0.09870393225, -10.0624172386
4.41107010841, -0.0520951143609, -0.552184143639, -9.74834110328, 0.17048861025, -0.27696921595, -9.88175913235, 0.116930458068, 0.228439342675, -9.67235102759, 0.023928226, 0.1124626622, -10.0636136499
4.42138195038, -0.0520951143609, -0.552184143639, -9.74834110328, 0.17048861025, -0.27696921595, -9.88175913235, 0.116930458068, 0.228439342675, -9.67235102759, 0.023928226, 0.1124626622, -10.0636136499
4.4315841198, -0.0552550702378, -0.551074359363, -9.7481218683, 0.15613167465, -0.2967100024, -9.8787681041, 0.115510983324, 0.230613667014, -9.67302060568, 0.0191425808, 0.12741780345, -10.0660064725
4.44181799889, -0.0552550702378, -0.551074359363, -9.7481218683, 0.15613167465, -0.2967100024, -9.8787681041, 0.115510983324, 0.230613667014, -9.67302060568, 0.0191425808, 0.12741780345, -10.0660064725
4.45248103142, -0.0561557502469, -0.549145285674, -9.74822018293, 0.15613167465, -0.2967100024, -9.8787681041, 0.117928047985, 0.22733515618, -9.67050332962, 0.0191425808, 0.12741780345, -10.0660064725
4.46580004692, -0.0561557502469, -0.549145285674, -9.74822018293, 0.1746760498, -0.287138712, -9.88175913235, 0.117928047985, 0.22733515618, -9.67050332962, 0.05443671415, 0.0741775006, -10.0343015731
4.47615408897, -0.0570290487157, -0.547641686314, -9.74913641924, 0.17407784415, -0.2895315346, -9.89013401145, 0.11922672335, 0.227972806172, -9.66906190473, 0.04606183505, 0.11066804525, -10.0426764522
4.48641896248, -0.0570290487157, -0.547641686314, -9.74913641924, 0.17407784415, -0.2895315346, -9.89013401145, 0.11922672335, 0.227972806172, -9.66906190473, 0.04606183505, 0.11066804525, -10.0426764522
4.49686408043, -0.0570000933492, -0.54617216341, -9.75155741297, 0.1818545176, -0.2883351233, -9.906285564, 0.117577622078, 0.236193908648, -9.66735256055, 0.0191425808, 0.18843477975, -10.0384890127
4.50701594353, -0.0570000933492, -0.54617216341, -9.75155741297, 0.1818545176, -0.2883351233, -9.906285564, 0.117577622078, 0.236193908648, -9.66735256055, 0.0191425808, 0.18843477975, -10.0384890127
4.51718211174, -0.0572874658226, -0.544965876277, -9.7519625506, 0.17886348935, -0.2895315346, -9.8883393945, 0.118347758213, 0.23712217839, -9.66846311938, 0.0406779842, 0.12263215825, -10.0654082669
4.52746510506, -0.0572874658226, -0.544965876277, -9.7519625506, 0.17886348935, -0.2895315346, -9.8883393945, 0.118347758213, 0.23712217839, -9.66846311938, 0.0406779842, 0.12263215825, -10.0654082669
4.53761315346, -0.0572874658226, -0.544965876277, -9.7519625506, 0.17886348935, -0.2895315346, -9.8883393945, 0.118347758213, 0.23712217839, -9.66846311938, 0.0406779842, 0.12263215825, -10.0654082669
4.5477540493, -0.0586744573404, -0.548764124019, -9.75019866639, 0.16809578765, -0.3397808092, -9.8668039911, 0.119980183767, 0.232075146171, -9.66622499405, 0.04965106895, 0.06281159325, -10.0325069561
4.55797100067, -0.0598600632457, -0.546833506905, -9.75133093092, 0.1686939933, -0.2847458894, -9.894321451, 0.12126150616, 0.22906226067, -9.66721284565, 0.047856452, 0.07836494015, -10.0630154443
4.56842303276, -0.0598600632457, -0.546833506905, -9.75133093092, 0.1686939933, -0.2847458894, -9.894321451, 0.12126150616, 0.22906226067, -9.66721284565, 0.047856452, 0.07836494015, -10.0630154443
4.57880616188, -0.0580435313706, -0.544107541921, -9.75116746452, 0.1962114532, -0.27457639335, -9.882357338, 0.120285609438, 0.22629183897, -9.66857283984, 0.0275174599, 0.0777667345, -10.0678010895
4.58896803856, -0.0580435313706, -0.544107541921, -9.75116746452, 0.1962114532, -0.27457639335, -9.882357338, 0.120285609438, 0.22629183897, -9.66857283984, 0.0275174599, 0.0777667345, -10.0678010895
4.60189509392, -0.0585399923452, -0.547352063959, -9.75054734296, 0.1758724611, -0.33320054705, -9.8775716928, 0.119720403399, 0.232328048171, -9.66538188696, 0.03050848815, 0.16450655375, -10.0229356657
4.61232614517, -0.0585399923452, -0.547352063959, -9.75054734296, 0.1758724611, -0.33320054705, -9.8775716928, 0.119720403399, 0.232328048171, -9.66538188696, 0.03050848815, 0.16450655375, -10.0229356657
4.62246704102, -0.0603032228958, -0.549283724212, -9.74898410474, 0.16331014245, -0.323031051, -9.86740219675, 0.121152944233, 0.231584037716, -9.66515899796, 0.0490528633, 0.1016949605, -10.04985492
4.63260412216, -0.0603032228958, -0.549283724212, -9.74898410474, 0.16331014245, -0.323031051, -9.86740219675, 0.121152944233, 0.231584037716, -9.66515899796, 0.0490528633, 0.1016949605, -10.04985492
4.6427590847, -0.0622662491553, -0.55078965148, -9.7494100723, 0.15972090855, -0.3206382284, -9.8859465719, 0.121252447141, 0.233796841049, -9.66672437692, 0.03768695595, 0.13100703735, -10.0678010895
4.652987957, -0.0622662491553, -0.55078965148, -9.7494100723, 0.15972090855, -0.3206382284, -9.8859465719, 0.121252447141, 0.233796841049, -9.66672437692, 0.03768695595, 0.13100703735, -10.0678010895
4.66403794289, -0.0614001414416, -0.552144986022, -9.75109419803, 0.15972090855, -0.3206382284, -9.8859465719, 0.121905581579, 0.232964776056, -9.66842754783, 0.03768695595, 0.13100703735, -10.0678010895
4.67429995537, -0.0614001414416, -0.552144986022, -9.75109419803, 0.18484554585, -0.3206382284, -9.8991070962, 0.121905581579, 0.232964776056, -9.66842754783, 0.0430708068, 0.10229316615, -10.0707921177
4.68444108963, -0.0614982549484, -0.550457700107, -9.75077702924, 0.17647066675, -0.2907279459, -9.88056272105, 0.122117681359, 0.232510041311, -9.66919514405, 0.0394815729, 0.1052841944, -10.0630154443
4.69460701942, -0.0614982549484, -0.550457700107, -9.75077702924, 0.17647066675, -0.2907279459, -9.88056272105, 0.122117681359, 0.232510041311, -9.66919514405, 0.0394815729, 0.1052841944, -10.0630154443
4.70547103882, -0.0630283456994, -0.553474198507, -9.75102370435, 0.1627119368, -0.3373879866, -9.8859465719, 0.121870229746, 0.23257137804, -9.67053350631, 0.03529413335, 0.1100698396, -10.0695957064
4.71574401855, -0.0630283456994, -0.553474198507, -9.75102370435, 0.1627119368, -0.3373879866, -9.8859465719, 0.121870229746, 0.23257137804, -9.67053350631, 0.03529413335, 0.1100698396, -10.0695957064
4.72587704659, -0.0647815461392, -0.552758684404, -9.74953108044, 0.1591227029, -0.30209385325, -9.86859860805, 0.122211105114, 0.233391302844, -9.66638122919, 0.0406779842, 0.11784651305, -10.0151589923
4.73606801033, -0.0647815461392, -0.552758684404, -9.74953108044, 0.1591227029, -0.30209385325, -9.86859860805, 0.122211105114, 0.233391302844, -9.66638122919, 0.0406779842, 0.11784651305, -10.0151589923
4.74658107758, -0.064040027491, -0.557056769615, -9.74984322521, 0.1591227029, -0.30209385325, -9.86859860805, 0.122211105114, 0.233391302844, -9.66638122919, 0.0406779842, 0.11784651305, -10.0151589923
4.75679016113, -0.064040027491, -0.557056769615, -9.74984322521, 0.18125631195, -0.3529413335, -9.88534836625, 0.121202868699, 0.232599791671, -9.66470448869, 0.02811566555, 0.10229316615, -10.03609619
4.76695609093, -0.064040027491, -0.557056769615, -9.74984322521, 0.18125631195, -0.3529413335, -9.88534836625, 0.121202868699, 0.232599791671, -9.66470448869, 0.02811566555, 0.10229316615, -10.03609619
4.77717494965, -0.0660681785155, -0.560459912384, -9.74982852937, 0.155533469, -0.3481556883, -9.882357338, 0.119982354914, 0.236711061105, -9.66531459711, 0.0251246373, 0.15134602945, -10.0576315934
4.78735995293, -0.0660681785155, -0.560459912384, -9.74982852937, 0.155533469, -0.3481556883, -9.882357338, 0.119982354914, 0.236711061105, -9.66531459711, 0.0251246373, 0.15134602945, -10.0576315934
4.79753112793, -0.0653860560117, -0.57026718272, -9.75017005447, 0.179461695, -0.4175475437, -9.8859465719, 0.119885815744, 0.235705223606, -9.66863039521, 0.0346959277, 0.10348957745, -10.085747259
4.80778002739, -0.0653860560117, -0.57026718272, -9.75017005447, 0.179461695, -0.4175475437, -9.8859465719, 0.119885815744, 0.235705223606, -9.66863039521, 0.0346959277, 0.10348957745, -10.085747259
4.81851816177, -0.066401993735, -0.568337504116, -9.74982704958, 0.1639083481, -0.30687949845, -9.87936630975, 0.119110108265, 0.239094176597, -9.66513935696, 0.02811566555, 0.1471585899, -10.0199446375
4.82899403572, -0.066401993735, -0.568337504116, -9.74982704958, 0.1639083481, -0.30687949845, -9.87936630975, 0.119110108265, 0.239094176597, -9.66513935696, 0.02811566555, 0.1471585899, -10.0199446375
4.83921003342, -0.066250667855, -0.566717076853, -9.75040522355, 0.17407784415, -0.30807590975, -9.8883393945, 0.120040096793, 0.238026501798, -9.66282154609, 0.04366901245, 0.1052841944, -10.0283195166
4.8495221138, -0.066250667855, -0.566717076853, -9.75040522355, 0.17407784415, -0.30807590975, -9.8883393945, 0.120040096793, 0.238026501798, -9.66282154609, 0.04366901245, 0.1052841944, -10.0283195166
4.85974097252, -0.0663652204057, -0.565491259277, -9.75246283595, 0.17168502155, -0.31046873235, -9.9038927414, 0.119123720805, 0.24147745072, -9.66432634039, 0.02691925425, 0.15014961815, -10.0648100613
4.87006115913, -0.0663652204057, -0.565491259277, -9.75246283595, 0.17168502155, -0.31046873235, -9.9038927414, 0.119123720805, 0.24147745072, -9.66432634039, 0.02691925425, 0.15014961815, -10.0648100613
4.88023996353, -0.0653399614095, -0.569969630501, -9.75064892322, 0.18245272325, -0.36789647475, -9.8668039911, 0.11811112181, 0.242759737503, -9.66291395474, 0.0251246373, 0.131605243, -10.0366943957
4.89179396629, -0.0653399614095, -0.569969630501, -9.75064892322, 0.18245272325, -0.36789647475, -9.8668039911, 0.11811112181, 0.242759737503, -9.66291395474, 0.0251246373, 0.131605243, -10.0366943957
4.90195894241, -0.0642291689311, -0.566616163618, -9.75079015848, 0.1842473402, -0.2919243572, -9.8847501606, 0.117325023119, 0.242031403612, -9.66252579718, 0.0263210486, 0.1124626622, -10.0456674804
4.91210794449, -0.0642291689311, -0.566616163618, -9.75079015848, 0.1842473402, -0.2919243572, -9.8847501606, 0.117325023119, 0.242031403612, -9.66252579718, 0.0263210486, 0.1124626622, -10.0456674804
4.92227911949, -0.0653607953625, -0.565923713026, -9.75251365127, 0.1639083481, -0.3158525832, -9.90090171315, 0.117744697936, 0.243846542605, -9.6640013004, 0.0370887503, 0.1375872995, -10.0642118556
4.93244504929, -0.0653607953625, -0.565923713026, -9.75251365127, 0.1639083481, -0.3158525832, -9.90090171315, 0.117744697936, 0.243846542605, -9.6640013004, 0.0370887503, 0.1375872995, -10.0642118556
4.94264006615, -0.0641225465675, -0.567335468393, -9.75246841372, 0.1854437515, -0.33678978095, -9.8847501606, 0.117370962845, 0.243480126202, -9.66373987215, 0.0299102825, 0.1172483074, -10.048060303
4.95281100273, -0.0641225465675, -0.567335468393, -9.75246841372, 0.1854437515, -0.33678978095, -9.8847501606, 0.117370962845, 0.243480126202, -9.66373987215, 0.0299102825, 0.1172483074, -10.048060303
4.96303296089, -0.0641225465675, -0.567335468393, -9.75246841372, 0.1854437515, -0.33678978095, -9.8847501606, 0.117370962845, 0.243480126202, -9.66373987215, 0.0299102825, 0.1172483074, -10.048060303
4.97325396538, -0.063885733101, -0.569768883025, -9.75207294859, 0.1770688724, -0.34875389395, -9.8811609267, 0.117973904297, 0.245150392936, -9.66385778254, 0.03888336725, 0.1375872995, -10.0516495369
4.98350405693, -0.063885733101, -0.569768883025, -9.75207294859, 0.1770688724, -0.34875389395, -9.8811609267, 0.117973904297, 0.245150392936, -9.66385778254, 0.03888336725, 0.1375872995, -10.0516495369
4.9941880703, -0.0648636437335, -0.571086830092, -9.75343166147, 0.16570296505, -0.3397808092, -9.89850889055, 0.117639868772, 0.241418230258, -9.66278658252, 0.03050848815, 0.08434699665, -10.0396854239
5.00432896614, -0.0648636437335, -0.571086830092, -9.75343166147, 0.16570296505, -0.3397808092, -9.89850889055, 0.117639868772, 0.241418230258, -9.66278658252, 0.03050848815, 0.08434699665, -10.0396854239
5.01449513435, -0.0648661528537, -0.568958903272, -9.75394500037, 0.17407784415, -0.30568308715, -9.89133042275, 0.119092602462, 0.238471057096, -9.66382394543, 0.04725824635, 0.0885344362, -10.060024416
5.02467703819, -0.0648661528537, -0.568958903272, -9.75394500037, 0.17407784415, -0.30568308715, -9.89133042275, 0.119092602462, 0.238471057096, -9.66382394543, 0.04725824635, 0.0885344362, -10.060024416
5.03492307663, -0.0648661528537, -0.568958903272, -9.75394500037, 0.17407784415, -0.30568308715, -9.89133042275, 0.119092602462, 0.238471057096, -9.66382394543, 0.04725824635, 0.0885344362, -10.060024416
5.04536414146, -0.0644296058373, -0.56186915427, -9.75121424327, 0.1782652837, -0.2524427843, -9.85902731765, 0.119711240559, 0.238348065496, -9.66405118042, 0.0406779842, 0.11425727915, -10.0528459482
5.05559301376, -0.0640993999832, -0.563221231593, -9.75330920415, 0.17766707805, -0.33200413575, -9.9050891527, 0.120205394643, 0.23600203256, -9.6644911558, 0.04007977855, 0.09152546445, -10.0552387708
5.06579899788, -0.0640993999832, -0.563221231593, -9.75330920415, 0.17766707805, -0.33200413575, -9.9050891527, 0.120205394643, 0.23600203256, -9.6644911558, 0.04007977855, 0.09152546445, -10.0552387708
5.07607603073, -0.0619843073557, -0.559844903721, -9.75277053475, 0.1950150419, -0.2847458894, -9.88056272105, 0.120211791904, 0.236243592912, -9.66170837132, 0.035892339, 0.11545369045, -10.0229356657
5.08633303642, -0.0619843073557, -0.559844903721, -9.75277053475, 0.1950150419, -0.2847458894, -9.88056272105, 0.120211791904, 0.236243592912, -9.66170837132, 0.035892339, 0.11545369045, -10.0229356657
5.09681200981, -0.0619843073557, -0.559844903721, -9.75277053475, 0.1950150419, -0.2847458894, -9.88056272105, 0.120211791904, 0.236243592912, -9.66170837132, 0.035892339, 0.11545369045, -10.0229356657
5.10694813728, -0.0603314698335, -0.560643563478, -9.75317261065, 0.1926222193, -0.3242274623, -9.8895358058, 0.119466107012, 0.230225573743, -9.66391314279, 0.0287138712, 0.05204389155, -10.0707921177
5.11710810661, -0.0603314698335, -0.560643563478, -9.75317261065, 0.1926222193, -0.3242274623, -9.8895358058, 0.119466107012, 0.230225573743, -9.66391314279, 0.0287138712, 0.05204389155, -10.0707921177
5.12743210793, -0.0620409255567, -0.56060651464, -9.75383010508, 0.16211373115, -0.31645078885, -9.89252683405, 0.12079883708, 0.232044800725, -9.66354279836, 0.047856452, 0.1256231865, -10.0468638917
5.13763093948, -0.0614480960454, -0.557956792383, -9.7505787105, 0.18245272325, -0.2895315346, -9.8536434668, 0.120996370906, 0.236152744504, -9.66385701404, 0.0382851616, 0.1507478238, -10.0534441539
5.14781713486, -0.0614480960454, -0.557956792383, -9.7505787105, 0.18245272325, -0.2895315346, -9.8536434668, 0.120996370906, 0.236152744504, -9.66385701404, 0.0382851616, 0.1507478238, -10.0534441539
5.15798711777, -0.0622309651589, -0.559351255455, -9.75007658957, 0.1698904046, -0.32841490185, -9.87816989845, 0.12148725236, 0.236673357412, -9.66143197358, 0.04127618985, 0.1184447187, -10.025926694
5.16896915436, -0.0622309651589, -0.559351255455, -9.75007658957, 0.1698904046, -0.32841490185, -9.87816989845, 0.12148725236, 0.236673357412, -9.66143197358, 0.04127618985, 0.1184447187, -10.025926694
5.17911195755, -0.0623713692153, -0.555954933016, -9.75027505819, 0.17527425545, -0.28055844985, -9.8847501606, 0.123056209309, 0.238200754526, -9.66260479739, 0.05204389155, 0.1292124204, -10.060024416
5.18934297562, -0.0623713692153, -0.555954933016, -9.75027505819, 0.17527425545, -0.28055844985, -9.8847501606, 0.123056209309, 0.238200754526, -9.66260479739, 0.05204389155, 0.1292124204, -10.060024416
5.1998360157, -0.0661335475836, -0.561154369906, -9.74968505204, 0.14057832775, -0.36550365215, -9.87697348715, 0.124405650361, 0.235869452687, -9.66507312206, 0.0514456859, 0.09152546445, -10.0743813517
5.21005010605, -0.0661335475836, -0.561154369906, -9.74968505204, 0.14057832775, -0.36550365215, -9.87697348715, 0.124405650361, 0.235869452687, -9.66507312206, 0.0514456859, 0.09152546445, -10.0743813517
5.22072196007, -0.0642538454206, -0.558159153423, -9.75092780323, 0.19082760235, -0.28654050635, -9.89491965665, 0.123929401848, 0.235830147278, -9.66270306871, 0.0514456859, 0.09152546445, -10.0743813517
5.23101615906, -0.0642538454206, -0.558159153423, -9.75092780323, 0.19082760235, -0.28654050635, -9.89491965665, 0.123929401848, 0.235830147278, -9.66270306871, 0.03529413335, 0.1124626622, -10.0277213109
5.2412879467, -0.0655083771244, -0.560289223011, -9.75021339735, 0.1627119368, -0.3361915753, -9.8763752815, 0.121872652928, 0.233206483415, -9.66274806154, 0.01974078645, 0.0861416136, -10.04985492
5.25182294846, -0.0655083771244, -0.560289223011, -9.75021339735, 0.1627119368, -0.3361915753, -9.8763752815, 0.121872652928, 0.233206483415, -9.66274806154, 0.01974078645, 0.0861416136, -10.04985492
5.26197814941, -0.0645061159957, -0.559589907338, -9.7499251834, 0.1830509289, -0.30927232105, -9.8799645154, 0.122714247596, 0.231904031436, -9.66008072052, 0.0454636294, 0.0969093153, -10.0223374601
5.27211308479, -0.0645061159957, -0.559589907338, -9.7499251834, 0.1830509289, -0.30927232105, -9.8799645154, 0.122714247596, 0.231904031436, -9.66008072052, 0.0454636294, 0.0969093153, -10.0223374601
5.28236603737, -0.0639801997438, -0.557041845812, -9.74960666563, 0.179461695, -0.2895315346, -9.87936630975, 0.124097884819, 0.230378876156, -9.66132980366, 0.0514456859, 0.0933200814, -10.0594262104
5.29283213615, -0.0639801997438, -0.557041845812, -9.74960666563, 0.179461695, -0.2895315346, -9.87936630975, 0.124097884819, 0.230378876156, -9.66132980366, 0.0514456859, 0.0933200814, -10.0594262104
5.3030230999, -0.0633815021958, -0.548352999035, -9.7499703771, 0.1806581063, -0.2237289131, -9.8859465719, 0.122775730029, 0.231300401649, -9.66180645284, 0.02691925425, 0.11665010175, -10.0528459482
5.31322216988, -0.0633815021958, -0.548352999035, -9.7499703771, 0.1806581063, -0.2237289131, -9.8859465719, 0.122775730029, 0.231300401649, -9.66180645284, 0.02691925425, 0.11665010175, -10.0528459482
5.32340502739, -0.0654755057499, -0.550882266661, -9.74964733995, 0.155533469, -0.3302095188, -9.87936630975, 0.12164841092, 0.230306207346, -9.66229430306, 0.0275174599, 0.0981057266, -10.0534441539
5.33360099792, -0.0654755057499, -0.550882266661, -9.74964733995, 0.155533469, -0.3302095188, -9.87936630975, 0.12164841092, 0.230306207346, -9.66229430306, 0.0275174599, 0.0981057266, -10.0534441539
5.34377408028, -0.0656048880503, -0.554088875365, -9.74870622906, 0.1722832272, -0.3397808092, -9.8727860476, 0.121447886351, 0.229117308724, -9.66243903842, 0.03529413335, 0.09511469835, -10.0504531256
5.35402011871, -0.0656048880503, -0.554088875365, -9.74870622906, 0.1722832272, -0.3397808092, -9.8727860476, 0.121447886351, 0.229117308724, -9.66243903842, 0.03529413335, 0.09511469835, -10.0504531256
5.36441612244, -0.063903424762, -0.555579421438, -9.75069724001, 0.18963119105, -0.3254238736, -9.9014999188, 0.122457198081, 0.229106145463, -9.66086218715, 0.0466600407, 0.10588240005, -10.0331051618
5.37467694283, -0.063903424762, -0.555579421438, -9.75069724001, 0.18963119105, -0.3254238736, -9.9014999188, 0.122457198081, 0.229106145463, -9.66086218715, 0.0466600407, 0.10588240005, -10.0331051618
5.38484215736, -0.0618706161172, -0.555874361583, -9.75260740032, 0.19441683625, -0.3146561719, -9.9026963301, 0.120986010953, 0.230802016273, -9.66344590688, 0.023928226, 0.1232303639, -10.073783146
5.39499306679, -0.0618706161172, -0.555874361583, -9.75260740032, 0.19441683625, -0.3146561719, -9.9026963301, 0.120986010953, 0.230802016273, -9.66344590688, 0.023928226, 0.1232303639, -10.073783146
5.40513515472, -0.0627366061449, -0.542243931847, -9.7538535428, 0.1686939933, -0.17168502155, -9.8979106849, 0.120914346583, 0.230740031756, -9.6648882651, 0.035892339, 0.10707881135, -10.0648100613
5.41533112526, -0.0627366061449, -0.542243931847, -9.7538535428, 0.1686939933, -0.17168502155, -9.8979106849, 0.120914346583, 0.230740031756, -9.6648882651, 0.035892339, 0.10707881135, -10.0648100613
5.42560005188, -0.062763759642, -0.557361304638, -9.75580282418, 0.1758724611, -0.4534398827, -9.906285564, 0.118407660763, 0.232037214938, -9.66430267651, 0.01256231865, 0.1208375413, -10.0456674804
5.43579697609, -0.062763759642, -0.557361304638, -9.75580282418, 0.1758724611, -0.4534398827, -9.906285564, 0.118407660763, 0.232037214938, -9.66430267651, 0.01256231865, 0.1208375413, -10.0456674804
5.44598317146, -0.0607195445879, -0.553524418141, -9.75625642248, 0.19561324755, -0.2739781877, -9.8931250397, 0.117090946559, 0.232734081803, -9.66395224468, 0.0215354034, 0.1160518961, -10.0474620974
5.45613408089, -0.0607195445879, -0.553524418141, -9.75625642248, 0.19561324755, -0.2739781877, -9.8931250397, 0.117090946559, 0.232734081803, -9.66395224468, 0.0215354034, 0.1160518961, -10.0474620974
5.4663541317, -0.0620767605324, -0.553210874255, -9.75394490064, 0.1651047594, -0.3062812928, -9.8656075798, 0.116657346201, 0.232773014482, -9.66363685603, 0.0287138712, 0.1100698396, -10.0474620974
5.47684907913, -0.0620767605324, -0.553210874255, -9.75394490064, 0.1651047594, -0.3062812928, -9.8656075798, 0.116657346201, 0.232773014482, -9.66363685603, 0.0287138712, 0.1100698396, -10.0474620974
5.48699808121, -0.0616057204449, -0.55664975612, -9.75547116966, 0.18125631195, -0.3445664544, -9.90209812445, 0.115954004869, 0.223572568164, -9.66547218112, 0.02572284295, 0.01615155255, -10.0689975008
5.49716496468, -0.0616057204449, -0.55664975612, -9.75547116966, 0.18125631195, -0.3445664544, -9.90209812445, 0.115954004869, 0.223572568164, -9.66547218112, 0.02572284295, 0.01615155255, -10.0689975008
5.50735712051, -0.0636265563314, -0.542302227789, -9.75335642355, 0.1579262916, -0.1651047594, -9.8668039911, 0.115508858276, 0.229880704446, -9.66441613915, 0.0275174599, 0.16450655375, -10.0414800409
5.51754617691, -0.0636265563314, -0.542302227789, -9.75335642355, 0.1579262916, -0.1651047594, -9.8668039911, 0.115508858276, 0.229880704446, -9.66441613915, 0.0275174599, 0.16450655375, -10.0414800409
5.52794408798, -0.0636265563314, -0.542302227789, -9.75335642355, 0.1770688724, -0.31645078885, -9.88893760015, 0.115546567758, 0.224087200874, -9.66364229927, 0.03170489945, 0.047856452, -10.0432746578
5.53812813759, -0.0634393418886, -0.54409931252, -9.75364078535, 0.1770688724, -0.31645078885, -9.88893760015, 0.115546567758, 0.224087200874, -9.66364229927, 0.03170489945, 0.047856452, -10.0432746578
5.54829216003, -0.0639603999571, -0.545251554856, -9.75312808305, 0.17048861025, -0.31166514365, -9.8811609267, 0.118586275998, 0.225814368145, -9.66453522454, 0.06041877065, 0.1184447187, -10.0594262104
5.5584499836, -0.0639603999571, -0.545251554856, -9.75312808305, 0.17048861025, -0.31166514365, -9.8811609267, 0.118586275998, 0.225814368145, -9.66453522454, 0.06041877065, 0.1184447187, -10.0594262104
5.56873011589, -0.0646174116008, -0.54756769124, -9.75331702845, 0.1686939933, -0.32482566795, -9.88774118885, 0.118754585123, 0.227721767187, -9.66245442482, 0.035892339, 0.1220339526, -10.0301141335
5.58139014244, -0.0646174116008, -0.54756769124, -9.75331702845, 0.1686939933, -0.32482566795, -9.88774118885, 0.118754585123, 0.227721767187, -9.66245442482, 0.035892339, 0.1220339526, -10.0301141335
5.59153413773, -0.0663370783717, -0.549070796585, -9.75271845139, 0.1579262916, -0.31884361145, -9.8799645154, 0.117027457269, 0.228673704578, -9.66487892078, 0.0179461695, 0.11425727915, -10.073783146
5.60171198845, -0.0663370783717, -0.549070796585, -9.75271845139, 0.1579262916, -0.31884361145, -9.8799645154, 0.117027457269, 0.228673704578, -9.66487892078, 0.0179461695, 0.11425727915, -10.073783146
5.61205816269, -0.0677594055443, -0.549435181815, -9.75371698787, 0.1591227029, -0.3086741154, -9.8955178623, 0.116474965436, 0.22894220073, -9.66494179227, 0.0275174599, 0.10827522265, -10.0522477426
5.62237596512, -0.0677594055443, -0.549435181815, -9.75371698787, 0.1591227029, -0.3086741154, -9.8955178623, 0.116474965436, 0.22894220073, -9.66494179227, 0.0275174599, 0.10827522265, -10.0522477426
5.63280701637, -0.0665947280343, -0.549297994602, -9.75366966712, 0.18245272325, -0.3038884702, -9.8859465719, 0.116165583393, 0.227007331522, -9.66670548971, 0.02931207685, 0.0861416136, -10.0695957064
5.64295196533, -0.0665947280343, -0.549297994602, -9.75366966712, 0.18245272325, -0.3038884702, -9.8859465719, 0.116165583393, 0.227007331522, -9.66670548971, 0.02931207685, 0.0861416136, -10.0695957064
5.65332698822, -0.0674897985554, -0.54760469913, -9.75315407664, 0.1639083481, -0.28773691765, -9.8811609267, 0.118830289059, 0.226795392731, -9.66699776609, 0.02931207685, 0.0861416136, -10.0695957064
5.66442704201, -0.0674897985554, -0.54760469913, -9.75315407664, 0.1639083481, -0.28773691765, -9.8811609267, 0.118830289059, 0.226795392731, -9.66699776609, 0.0574277424, 0.1016949605, -10.0564351822
5.67463207245, -0.0677938703392, -0.549104103686, -9.7538725497, 0.1686939933, -0.31884361145, -9.8931250397, 0.117596552429, 0.232016524808, -9.6663778253, 0.0227318147, 0.1567298803, -10.0474620974
5.68525195122, -0.0677938703392, -0.549104103686, -9.7538725497, 0.1686939933, -0.31884361145, -9.8931250397, 0.117596552429, 0.232016524808, -9.6663778253, 0.0227318147, 0.1567298803, -10.0474620974
5.69541215897, -0.0665003734284, -0.550337284306, -9.75310017007, 0.18364913455, -0.31764720015, -9.8787681041, 0.117738593507, 0.227538882697, -9.66846884718, 0.0346959277, 0.0634097989, -10.0743813517
5.70559310913, -0.0665003734284, -0.550337284306, -9.75310017007, 0.18364913455, -0.31764720015, -9.8787681041, 0.117738593507, 0.227538882697, -9.66846884718, 0.0346959277, 0.0634097989, -10.0743813517
5.7158510685, -0.0660884637365, -0.549354044224, -9.74998089421, 0.17647066675, -0.29611179675, -9.85424167245, 0.119118834521, 0.234273934024, -9.66593581922, 0.0466600407, 0.17288143285, -10.0295159279
5.72617697716, -0.0660884637365, -0.549354044224, -9.74998089421, 0.17647066675, -0.29611179675, -9.85424167245, 0.119118834521, 0.234273934024, -9.66593581922, 0.0466600407, 0.17288143285, -10.0295159279
5.73659896851, -0.0656550585531, -0.556376404793, -9.74906555311, 0.1770688724, -0.37746776515, -9.87338425325, 0.117918863548, 0.23474712898, -9.66642279459, 0.02333002035, 0.1160518961, -10.0576315934
5.74691510201, -0.0656550585531, -0.556376404793, -9.74906555311, 0.1770688724, -0.37746776515, -9.87338425325, 0.117918863548, 0.23474712898, -9.66642279459, 0.02333002035, 0.1160518961, -10.0576315934
5.75731706619, -0.0638232052932, -0.554731110922, -9.74558111103, 0.19082760235, -0.2955135911, -9.846464999, 0.115836966436, 0.234467107442, -9.66715540226, 0.01375872995, 0.1088734283, -10.0606226217
5.76766109467, -0.0638232052932, -0.554731110922, -9.74558111103, 0.19082760235, -0.2955135911, -9.846464999, 0.115836966436, 0.234467107442, -9.66715540226, 0.01375872995, 0.1088734283, -10.0606226217
5.7778711319, -0.0638232052932, -0.554731110922, -9.74558111103, 0.19082760235, -0.2955135911, -9.846464999, 0.115836966436, 0.234467107442, -9.66715540226, 0.01375872995, 0.1088734283, -10.0606226217
5.78822517395, -0.0619864779773, -0.5566807091, -9.74516487348, 0.1926222193, -0.33080772445, -9.8739824589, 0.116029725708, 0.237097500802, -9.66958072823, 0.0334995164, 0.13818550515, -10.0785687912
5.79843997955, -0.062652822437, -0.559656324, -9.74756914521, 0.17048861025, -0.3433700431, -9.90209812445, 0.116516310065, 0.235052998585, -9.66870249123, 0.03649054465, 0.0933200814, -10.0474620974
5.80887103081, -0.062652822437, -0.559656324, -9.74756914521, 0.17048861025, -0.3433700431, -9.90209812445, 0.116516310065, 0.235052998585, -9.66870249123, 0.03649054465, 0.0933200814, -10.0474620974
5.81908607483, -0.062124176159, -0.56215995219, -9.7478409826, 0.18125631195, -0.34157542615, -9.88295554365, 0.117267336997, 0.230212884346, -9.67009011877, 0.0394815729, 0.06281159325, -10.0695957064
5.82932114601, -0.062124176159, -0.56215995219, -9.7478409826, 0.18125631195, -0.34157542615, -9.88295554365, 0.117267336997, 0.230212884346, -9.67009011877, 0.0394815729, 0.06281159325, -10.0695957064
5.83949995041, -0.062124176159, -0.56215995219, -9.7478409826, 0.18125631195, -0.34157542615, -9.88295554365, 0.117267336997, 0.230212884346, -9.67009011877, 0.0394815729, 0.06281159325, -10.0695957064
5.84966111183, -0.0618991403514, -0.56208754796, -9.74725788311, 0.17886348935, -0.31764720015, -9.87458066455, 0.113497226878, 0.228739194275, -9.66904321077, -0.00299102825, 0.0921236701, -10.0462656861
5.85983705521, -0.0616966081246, -0.560975832833, -9.74980760523, 0.17886348935, -0.30687949845, -9.90568735835, 0.11429968132, 0.229824687956, -9.66662934437, 0.0370887503, 0.11665010175, -10.0313105448
5.87005209923, -0.0616966081246, -0.560975832833, -9.74980760523, 0.17886348935, -0.30687949845, -9.90568735835, 0.11429968132, 0.229824687956, -9.66662934437, 0.0370887503, 0.11665010175, -10.0313105448
5.88037204742, -0.0624546260302, -0.556021650896, -9.75399436231, 0.1698904046, -0.26620151425, -9.92482993915, 0.113268524655, 0.231507529267, -9.66787109078, 0.0203389921, 0.12382856955, -10.0660064725
5.89055299759, -0.0624546260302, -0.556021650896, -9.75399436231, 0.1698904046, -0.26620151425, -9.92482993915, 0.113268524655, 0.231507529267, -9.66787109078, 0.0203389921, 0.12382856955, -10.0660064725
5.90081596375, -0.0624546260302, -0.556021650896, -9.75399436231, 0.1698904046, -0.26620151425, -9.92482993915, 0.113268524655, 0.231507529267, -9.66787109078, 0.0203389921, 0.12382856955, -10.0660064725
5.91098713875, -0.0599398326522, -0.553772273274, -9.75344630232, 0.20039889275, -0.28893332895, -9.8811609267, 0.112653584668, 0.232022065699, -9.66769361124, 0.02333002035, 0.1136590735, -10.0528459482
5.92136597633, -0.0599398326522, -0.553772273274, -9.75344630232, 0.20039889275, -0.28893332895, -9.8811609267, 0.112653584668, 0.232022065699, -9.66769361124, 0.02333002035, 0.1136590735, -10.0528459482
5.93194198608, -0.061939197936, -0.553375802135, -9.75443117893, 0.15972090855, -0.30568308715, -9.89611606795, 0.112350619489, 0.233485169236, -9.66818140531, 0.02572284295, 0.12382856955, -10.0594262104
5.94209909439, -0.061939197936, -0.553375802135, -9.75443117893, 0.15972090855, -0.30568308715, -9.89611606795, 0.112350619489, 0.233485169236, -9.66818140531, 0.02572284295, 0.12382856955, -10.0594262104
5.95230317116, -0.0617953464114, -0.558251734713, -9.7534255607, 0.1782652837, -0.35952159565, -9.87697348715, 0.112328431636, 0.23450783867, -9.66756083254, 0.02811566555, 0.1208375413, -10.0486585087
5.96246194839, -0.0617953464114, -0.558251734713, -9.7534255607, 0.1782652837, -0.35952159565, -9.87697348715, 0.112328431636, 0.23450783867, -9.66756083254, 0.02811566555, 0.1208375413, -10.0486585087
5.97279000282, -0.0609763289721, -0.555023506089, -9.75257962953, 0.18484554585, -0.2811566555, -9.8775716928, 0.113059904995, 0.23095756017, -9.66659025526, 0.03529413335, 0.0753739119, -10.0444710691
5.98314905167, -0.0609763289721, -0.555023506089, -9.75257962953, 0.18484554585, -0.2811566555, -9.8775716928, 0.113059904995, 0.23095756017, -9.66659025526, 0.03529413335, 0.0753739119, -10.0444710691
5.99339413643, -0.0603018997374, -0.553571643828, -9.75170004102, 0.1842473402, -0.29611179675, -9.8763752815, 0.112591067379, 0.230762371764, -9.66595219959, 0.03529413335, 0.0753739119, -10.0444710691
6.00355315208, -0.0603018997374, -0.553571643828, -9.75170004102, 0.1842473402, -0.29611179675, -9.8763752815, 0.112591067379, 0.230762371764, -9.66595219959, 0.02452643165, 0.10588240005, -10.0468638917
6.01372814178, -0.0621396853914, -0.549997439932, -9.74972590688, 0.16091731985, -0.2727817764, -9.8644111685, 0.112857935748, 0.232057320945, -9.66785032017, 0.0311066938, 0.1208375413, -10.0719885291
6.02391004562, -0.0621396853914, -0.549997439932, -9.74972590688, 0.16091731985, -0.2727817764, -9.8644111685, 0.112857935748, 0.232057320945, -9.66785032017, 0.0311066938, 0.1208375413, -10.0719885291
6.0341770649, -0.063104141413, -0.549804026907, -9.7495455672, 0.16091731985, -0.2727817764, -9.8644111685, 0.113599078898, 0.231752156461, -9.66726285591, 0.0311066938, 0.1208375413, -10.0719885291
6.04468512535, -0.063104141413, -0.549804026907, -9.7495455672, 0.167497582, -0.3038884702, -9.88056272105, 0.113599078898, 0.231752156461, -9.66726285591, 0.035892339, 0.10588240005, -10.0486585087
6.05490016937, -0.063104141413, -0.549804026907, -9.7495455672, 0.167497582, -0.3038884702, -9.88056272105, 0.113599078898, 0.231752156461, -9.66726285591, 0.035892339, 0.10588240005, -10.0486585087
6.06536698341, -0.0628437955406, -0.555967404848, -9.75186652091, 0.1782652837, -0.36909288605, -9.90568735835, 0.113639905711, 0.228653920432, -9.66732279776, 0.0299102825, 0.07716852885, -10.0546405652
6.07555794716, -0.0619199331884, -0.557735231893, -9.75229987297, 0.18484554585, -0.3302095188, -9.88893760015, 0.11330092863, 0.231336209744, -9.66914272449, 0.0263210486, 0.1328016543, -10.0725867347
6.08573198318, -0.0619199331884, -0.557735231893, -9.75229987297, 0.18484554585, -0.3302095188, -9.88893760015, 0.11330092863, 0.231336209744, -9.66914272449, 0.0263210486, 0.1328016543, -10.0725867347
6.09592199326, -0.0635959154974, -0.557407598812, -9.75150738534, 0.16091731985, -0.31046873235, -9.87697348715, 0.114310873503, 0.233750270124, -9.66760189624, 0.03888336725, 0.1328016543, -10.0402836296
6.10608816147, -0.0635959154974, -0.557407598812, -9.75150738534, 0.16091731985, -0.31046873235, -9.87697348715, 0.114310873503, 0.233750270124, -9.66760189624, 0.03888336725, 0.1328016543, -10.0402836296
6.11626911163, -0.0637878839018, -0.561589643022, -9.75014376901, 0.1734796385, -0.3565305674, -9.870393225, 0.113967419845, 0.232805212724, -9.66703927438, 0.02691925425, 0.10109675485, -10.0486585087
