TIME, IMU1_acc_x, IMU1_acc_y, IMU1_acc_z, IMU1_acc_raw_x, IMU1_acc_raw_y, IMU1_acc_raw_z,IMU2_acc_x, IMU2_acc_y,IMU2_acc_z, IMU2_acc_raw_x, IMU2_acc_raw_y, IMU2_acc_raw_z1.90734863281e-06, 0.0, 0.0, 0.0, 0.0, 0.0, 0.0, 0.0, 0.0, 0.0, 0.0, 0.0, 0.0
0.0101239681244, 0.0, 0.0, 0.0, 0.0, 0.0, 0.0, 0.0, 0.0, 0.0, 0.0, 0.0, 0.0
0.0203490257263, 0.0, 0.0, 0.0, 0.0, 0.0, 0.0, 0.0, 0.0, 0.0, 0.0, 0.0, 0.0
0.0363450050354, 0.0, 0.0, 0.0, 0.0, 0.0, 0.0, 0.0, 0.0, 0.0, 0.0, 0.0, 0.0
0.0506300926208, 0.0, 0.0, 0.0, 0.0, 0.0, 0.0, 0.0, 0.0, 0.0, 0.0, 0.0, 0.0
0.0608010292053, 0.0, 0.0, 0.0, 0.0, 0.0, 0.0, 0.0, 0.0, 0.0, 0.0, 0.0, 0.0
0.0709691047668, 0.128726948767, -0.239611916605, -9.86937695647, 0.36789647475, -0.0071784678, -9.86979501935, 0.294002406229, 0.560399866719, -9.83095969314, 0.22552353005, 0.48035913695, -10.0462656861
0.0812880992889, 0.128726948767, -0.239611916605, -9.86937695647, 0.36789647475, -0.0071784678, -9.86979501935, 0.294002406229, 0.560399866719, -9.83095969314, 0.22552353005, 0.48035913695, -10.0462656861
0.0914571285248, 0.12982156871, -0.237822208785, -9.86887499462, 0.3756731482, 0.0382851616, -9.882357338, 0.294037569006, 0.561925303797, -9.83098580656, 0.215354034, 0.4486542375, -10.0612208274
0.101656913757, 0.12982156871, -0.237822208785, -9.86887499462, 0.3756731482, 0.0382851616, -9.882357338, 0.294037569006, 0.561925303797, -9.83098580656, 0.215354034, 0.4486542375, -10.0612208274
0.111880064011, 0.129430853664, -0.236809677396, -9.86896161404, 0.36191441825, 0.0323031051, -9.88774118885, 0.29377011268, 0.560666092308, -9.83394051633, 0.21236300575, 0.4223331889, -10.0905329042
0.122083902359, 0.129430853664, -0.236809677396, -9.86896161404, 0.36191441825, 0.0323031051, -9.88774118885, 0.29377011268, 0.560666092308, -9.83394051633, 0.21236300575, 0.4223331889, -10.0905329042
0.132384061813, 0.130036339163, -0.239966197567, -9.86945831548, 0.37148570865, -0.0083748791, -9.8919286284, 0.294845454417, 0.563002394737, -9.83420693252, 0.22552353005, 0.4570291166, -10.0666046782
0.14275598526, 0.130036339163, -0.239966197567, -9.86945831548, 0.37148570865, -0.0083748791, -9.8919286284, 0.294845454417, 0.563002394737, -9.83420693252, 0.22552353005, 0.4570291166, -10.0666046782
0.15372300148, 0.127650068426, -0.237243753175, -9.86876875604, 0.3421736318, 0.04725824635, -9.88056272105, 0.294437388985, 0.561097089068, -9.83432706595, 0.2117648001, 0.41694933805, -10.0654082669
0.163901090622, 0.127650068426, -0.237243753175, -9.86876875604, 0.3421736318, 0.04725824635, -9.88056272105, 0.294437388985, 0.561097089068, -9.83432706595, 0.2117648001, 0.41694933805, -10.0654082669
0.174057006836, 0.127655965104, -0.239399736728, -9.86844725536, 0.3637090352, 0.0011964113, -9.8835537493, 0.294369232922, 0.564227779731, -9.83545213565, 0.21475582835, 0.4654039957, -10.0755777629
0.184231042862, 0.127655965104, -0.239399736728, -9.86844725536, 0.3637090352, 0.0011964113, -9.8835537493, 0.294369232922, 0.564227779731, -9.83545213565, 0.21475582835, 0.4654039957, -10.0755777629
0.194422960281, 0.128319298328, -0.2386481965, -9.86923467493, 0.37028929735, 0.02811566555, -9.894321451, 0.294906098115, 0.564473117033, -9.83586649273, 0.22073788485, 0.43968115275, -10.0695957064
0.204608917236, 0.128319298328, -0.2386481965, -9.86923467493, 0.37028929735, 0.02811566555, -9.894321451, 0.294906098115, 0.564473117033, -9.83586649273, 0.22073788485, 0.43968115275, -10.0695957064
0.214769124985, 0.126822578456, -0.240603915155, -9.86826837671, 0.3493520996, 0.00179461695, -9.8775716928, 0.293833942098, 0.56535194682, -9.83480372054, 0.20518453795, 0.4462614149, -10.0552387708
0.224958896637, 0.126822578456, -0.240603915155, -9.86826837671, 0.3493520996, 0.00179461695, -9.8775716928, 0.293833942098, 0.56535194682, -9.83480372054, 0.20518453795, 0.4462614149, -10.0552387708
0.235155105591, 0.126013915655, -0.239552495389, -9.86883440188, 0.35473595045, 0.0299102825, -9.8919286284, 0.295142183153, 0.570031230353, -9.83456507236, 0.22791635265, 0.48514478215, -10.0624172386
0.245350122452, 0.126013915655, -0.239552495389, -9.86883440188, 0.35473595045, 0.0299102825, -9.8919286284, 0.295142183153, 0.570031230353, -9.83456507236, 0.22791635265, 0.48514478215, -10.0624172386
0.255568981171, 0.12714055665, -0.23956334664, -9.87024113301, 0.3732803256, 0.0203389921, -9.90090171315, 0.296319600103, 0.571431018978, -9.8324360309, 0.22791635265, 0.4570291166, -10.0432746578
0.265788078308, 0.12714055665, -0.23956334664, -9.87024113301, 0.3732803256, 0.0203389921, -9.90090171315, 0.296319600103, 0.571431018978, -9.8324360309, 0.22791635265, 0.4570291166, -10.0432746578
0.276124000549, 0.12773578959, -0.236342802256, -9.8698322152, 0.36909288605, 0.0526420972, -9.88415195495, 0.297259634228, 0.569520338795, -9.83327163959, 0.22671994135, 0.42532421715, -10.0707921177
0.286371946335, 0.12773578959, -0.236342802256, -9.8698322152, 0.36909288605, 0.0526420972, -9.88415195495, 0.297259634228, 0.569520338795, -9.83327163959, 0.22671994135, 0.42532421715, -10.0707921177
0.296570062637, 0.126716164546, -0.232606824401, -9.87119898556, 0.35353953915, 0.0610169763, -9.9014999188, 0.29607176573, 0.570612293185, -9.83270763498, 0.20638094925, 0.4534398827, -10.0576315934
0.306792974472, 0.126716164546, -0.232606824401, -9.87119898556, 0.35353953915, 0.0610169763, -9.9014999188, 0.29607176573, 0.570612293185, -9.83270763498, 0.20638094925, 0.4534398827, -10.0576315934
0.316956043243, 0.127473477826, -0.231756908061, -9.87075410307, 0.37028929735, 0.035892339, -9.8847501606, 0.296617839337, 0.568783485582, -9.83208038969, 0.2225325018, 0.42532421715, -10.0564351822
0.327137947083, 0.127473477826, -0.231756908061, -9.87075410307, 0.37028929735, 0.035892339, -9.8847501606, 0.296617839337, 0.568783485582, -9.83208038969, 0.2225325018, 0.42532421715, -10.0564351822
0.337351083755, 0.128813085993, -0.228958084145, -9.87005460599, 0.3768695595, 0.0562313311, -9.88175913235, 0.294656662418, 0.567077738174, -9.83372922984, 0.2225325018, 0.42532421715, -10.0564351822
0.34796500206, 0.128813085993, -0.228958084145, -9.87005460599, 0.3768695595, 0.0562313311, -9.88175913235, 0.294656662418, 0.567077738174, -9.83372922984, 0.19800607015, 0.4247260115, -10.0785687912
0.358129024506, 0.127566090179, -0.23218191686, -9.87032236711, 0.35234312785, -0.0011964113, -9.8907322171, 0.295045143531, 0.564465795336, -9.82779543592, 0.21954147355, 0.4139583098, -10.0043912906
0.368287086487, 0.127566090179, -0.23218191686, -9.87032236711, 0.35234312785, -0.0011964113, -9.8907322171, 0.295045143531, 0.564465795336, -9.82779543592, 0.21954147355, 0.4139583098, -10.0043912906
0.378519058228, 0.124768818126, -0.248662634559, -9.8693669408, 0.33559336965, -0.13698909385, -9.8787681041, 0.294078724103, 0.567199794808, -9.82831743676, 0.20638094925, 0.46480579005, -10.0630154443
0.388720989227, 0.124768818126, -0.248662634559, -9.8693669408, 0.33559336965, -0.13698909385, -9.8787681041, 0.294078724103, 0.567199794808, -9.82831743676, 0.20638094925, 0.46480579005, -10.0630154443
0.398880958557, 0.125242301529, -0.249198165453, -9.87383108742, 0.36550365215, 0.0059820565, -9.93200840695, 0.294225896223, 0.567686315687, -9.82980418712, 0.2165504453, 0.4450650036, -10.0731849404
0.409048080444, 0.125242301529, -0.249198165453, -9.87383108742, 0.36550365215, 0.0059820565, -9.93200840695, 0.294225896223, 0.567686315687, -9.82980418712, 0.2165504453, 0.4450650036, -10.0731849404
0.419315099716, 0.125242301529, -0.249198165453, -9.87383108742, 0.36550365215, 0.0059820565, -9.93200840695, 0.294225896223, 0.567686315687, -9.82980418712, 0.2165504453, 0.4450650036, -10.0731849404
0.429491043091, 0.125189872071, -0.248842655348, -9.87246496852, 0.36071800695, 0.0143569356, -9.87816989845, 0.295016377346, 0.565791182443, -9.83168064752, 0.22313070745, 0.42173498325, -10.0785687912
0.439660072327, 0.125980173469, -0.251274442243, -9.87308989903, 0.36909288605, -0.0131605243, -9.8967142736, 0.295548348661, 0.562889151224, -9.83229269172, 0.2213360905, 0.40977087025, -10.0678010895
0.449985027313, 0.125980173469, -0.251274442243, -9.87308989903, 0.36909288605, -0.0131605243, -9.8967142736, 0.295548348661, 0.562889151224, -9.83229269172, 0.2213360905, 0.40977087025, -10.0678010895
0.460266113281, 0.125980173469, -0.251274442243, -9.87308989903, 0.36909288605, -0.0131605243, -9.8967142736, 0.295548348661, 0.562889151224, -9.83229269172, 0.2213360905, 0.40977087025, -10.0678010895
0.470457077026, 0.126990547552, -0.248557764119, -9.87179789897, 0.3720839143, 0.035892339, -9.87816989845, 0.295787840585, 0.562610325161, -9.83571491862, 0.2189432679, 0.4331008906, -10.0965149607
0.480633020401, 0.126990547552, -0.248557764119, -9.87179789897, 0.3720839143, 0.035892339, -9.87816989845, 0.295787840585, 0.562610325161, -9.83571491862, 0.2189432679, 0.4331008906, -10.0965149607
0.490864992142, 0.126763293492, -0.248625217537, -9.87392522999, 0.36071800695, 0.0107677017, -9.9110712092, 0.295584639362, 0.56074422645, -9.83197537842, 0.21475582835, 0.41694933805, -10.0283195166
0.501174926758, 0.126763293492, -0.248625217537, -9.87392522999, 0.36071800695, 0.0107677017, -9.9110712092, 0.295584639362, 0.56074422645, -9.83197537842, 0.21475582835, 0.41694933805, -10.0283195166
0.51135802269, 0.127635535007, -0.262923220083, -9.87362646701, 0.37148570865, -0.131605243, -9.88893760015, 0.295820502215, 0.563910203375, -9.83201956444, 0.2189432679, 0.4654039957, -10.0624172386
0.521527051926, 0.127635535007, -0.262923220083, -9.87362646701, 0.37148570865, -0.131605243, -9.88893760015, 0.295820502215, 0.563910203375, -9.83201956444, 0.2189432679, 0.4654039957, -10.0624172386
0.531785011292, 0.128779475762, -0.27046739209, -9.87521201784, 0.37507494255, -0.07836494015, -9.9074819753, 0.295434573134, 0.562332860798, -9.83223879356, 0.2129612114, 0.4211367776, -10.0642118556
0.542102098465, 0.128779475762, -0.27046739209, -9.87521201784, 0.37507494255, -0.07836494015, -9.9074819753, 0.295434573134, 0.562332860798, -9.83223879356, 0.2129612114, 0.4211367776, -10.0642118556
0.55234003067, 0.129210816791, -0.263438596381, -9.8738872676, 0.36909288605, 0.059820565, -9.8799645154, 0.296582751085, 0.560673970218, -9.83369233163, 0.2129612114, 0.4211367776, -10.0642118556
0.562853097916, 0.129210816791, -0.263438596381, -9.8738872676, 0.36909288605, 0.059820565, -9.8799645154, 0.296582751085, 0.560673970218, -9.83369233163, 0.22791635265, 0.418743955, -10.0767741743
0.573079109192, 0.128582074111, -0.261539402053, -9.87209678673, 0.35892339, 0.0155533469, -9.8739824589, 0.296658982202, 0.558941686436, -9.83075325577, 0.21834506225, 0.4163511324, -10.0343015731
0.583359003067, 0.128582074111, -0.261539402053, -9.87209678673, 0.35892339, 0.0155533469, -9.8739824589, 0.296658982202, 0.558941686436, -9.83075325577, 0.21834506225, 0.4163511324, -10.0343015731
0.593585014343, 0.130109925475, -0.261086359023, -9.87377548502, 0.37986058775, 0.00299102825, -9.90688376965, 0.297804360377, 0.562706661318, -9.82840719033, 0.22911276395, 0.46959143525, -10.0372926013
0.603804111481, 0.130109925475, -0.261086359023, -9.87377548502, 0.37986058775, 0.00299102825, -9.90688376965, 0.297804360377, 0.562706661318, -9.82840719033, 0.22911276395, 0.46959143525, -10.0372926013
0.614104032516, 0.130109925475, -0.261086359023, -9.87377548502, 0.37986058775, 0.00299102825, -9.90688376965, 0.297804360377, 0.562706661318, -9.82840719033, 0.22911276395, 0.46959143525, -10.0372926013
0.624563932419, 0.128673425148, -0.26349018685, -9.87271402919, 0.3517449222, -0.0251246373, -9.8811609267, 0.296502198699, 0.560352364471, -9.82731268104, 0.2057827436, 0.41216369285, -10.0474620974
0.634737968445, 0.128337703893, -0.268764301275, -9.87397207984, 0.3613162126, -0.0562313311, -9.90329453575, 0.297902537484, 0.560626319909, -9.82758385454, 0.23150558655, 0.43609191885, -10.060024416
0.644935131073, 0.128337703893, -0.268764301275, -9.87397207984, 0.3613162126, -0.0562313311, -9.90329453575, 0.297902537484, 0.560626319909, -9.82758385454, 0.23150558655, 0.43609191885, -10.060024416
0.655226945877, 0.128693580979, -0.265794151373, -9.87253204114, 0.36789647475, 0.02093719775, -9.8775716928, 0.296710199226, 0.561171982628, -9.82938324538, 0.2069791549, 0.4390829471, -10.0755777629
0.66542506218, 0.128693580979, -0.265794151373, -9.87253204114, 0.36789647475, 0.02093719775, -9.8775716928, 0.296710199226, 0.561171982628, -9.82938324538, 0.2069791549, 0.4390829471, -10.0755777629
0.675646066666, 0.127757638491, -0.259232679735, -9.87045833896, 0.3553341561, 0.059820565, -9.86979501935, 0.295517453663, 0.562261284725, -9.82998574753, 0.2057827436, 0.4450650036, -10.0654082669
0.685971975327, 0.127757638491, -0.259232679735, -9.87045833896, 0.3553341561, 0.059820565, -9.86979501935, 0.295517453663, 0.562261284725, -9.82998574753, 0.2057827436, 0.4450650036, -10.0654082669
0.696442127228, 0.129487574547, -0.257335333117, -9.86883128926, 0.38105699905, 0.01974078645, -9.87218784195, 0.296657343562, 0.558276549718, -9.82855392082, 0.22791635265, 0.39541393465, -10.0456674804
0.706633090973, 0.129487574547, -0.257335333117, -9.86883128926, 0.38105699905, 0.01974078645, -9.87218784195, 0.296657343562, 0.558276549718, -9.82855392082, 0.22791635265, 0.39541393465, -10.0456674804
0.716788053513, 0.128292771007, -0.259037493365, -9.8684437147, 0.35353953915, -0.0143569356, -9.88295554365, 0.297264500516, 0.559655395106, -9.83157235747, 0.2237289131, 0.4450650036, -10.0887382872
0.726994037628, 0.128292771007, -0.259037493365, -9.8684437147, 0.35353953915, -0.0143569356, -9.88295554365, 0.297264500516, 0.559655395106, -9.83157235747, 0.2237289131, 0.4450650036, -10.0887382872
0.737154006958, 0.128354038556, -0.257937332729, -9.86707794799, 0.3649054465, 0.011964113, -9.8727860476, 0.299665379289, 0.560477612, -9.83004169033, 0.24227328825, 0.44087756405, -10.0462656861
0.747338056564, 0.128354038556, -0.257937332729, -9.86707794799, 0.3649054465, 0.011964113, -9.8727860476, 0.299665379289, 0.560477612, -9.83004169033, 0.24227328825, 0.44087756405, -10.0462656861
0.757508039474, 0.128588641046, -0.251563337306, -9.86596839908, 0.36670006345, 0.0658026215, -9.8739824589, 0.29877532137, 0.559662272515, -9.8300399629, 0.2117648001, 0.42532421715, -10.060024416
0.767735004425, 0.128588641046, -0.251563337306, -9.86596839908, 0.36670006345, 0.0658026215, -9.8739824589, 0.29877532137, 0.559662272515, -9.8300399629, 0.2117648001, 0.42532421715, -10.060024416
0.777880907059, 0.127483730856, -0.254081979395, -9.8659269341, 0.35353953915, -0.0167497582, -9.8835537493, 0.299948347888, 0.563773932744, -9.83069643443, 0.23150558655, 0.4737788748, -10.0666046782
0.788039922714, 0.127483730856, -0.254081979395, -9.8659269341, 0.35353953915, -0.0167497582, -9.8835537493, 0.299948347888, 0.563773932744, -9.83069643443, 0.23150558655, 0.4737788748, -10.0666046782
0.798429012299, 0.126908055641, -0.253836293546, -9.86576997449, 0.3577269787, 0.0083748791, -9.882357338, 0.299448737064, 0.564603039829, -9.83302205519, 0.21595223965, 0.4450650036, -10.0839526421
0.808731079102, 0.126908055641, -0.253836293546, -9.86576997449, 0.3577269787, 0.0083748791, -9.882357338, 0.299448737064, 0.564603039829, -9.83302205519, 0.21595223965, 0.4450650036, -10.0839526421
0.818898916245, 0.125612280601, -0.252957150066, -9.86915812418, 0.34995030525, 0.01495514125, -9.91765147135, 0.298939266758, 0.566545647506, -9.83284193241, 0.215354034, 0.4570291166, -10.0612208274
0.829059123993, 0.125612280601, -0.252957150066, -9.86915812418, 0.34995030525, 0.01495514125, -9.91765147135, 0.298939266758, 0.566545647506, -9.83284193241, 0.215354034, 0.4570291166, -10.0612208274
0.839268922806, 0.127138008491, -0.249533816075, -9.86849858386, 0.3768695595, 0.04127618985, -9.88056272105, 0.297703076137, 0.565781530686, -9.83172269286, 0.20757736055, 0.4319044793, -10.0516495369
0.84956407547, 0.127138008491, -0.249533816075, -9.86849858386, 0.3768695595, 0.04127618985, -9.88056272105, 0.297703076137, 0.565781530686, -9.83172269286, 0.20757736055, 0.4319044793, -10.0516495369
0.859745025635, 0.127138008491, -0.249533816075, -9.86849858386, 0.3768695595, 0.04127618985, -9.88056272105, 0.297703076137, 0.565781530686, -9.83172269286, 0.20757736055, 0.4319044793, -10.0516495369
0.869960069656, 0.127912957942, -0.247110841697, -9.86808445928, 0.370887503, 0.0346959277, -9.882357338, 0.297667274748, 0.567666109842, -9.83262963535, 0.21834506225, 0.45762732225, -10.0707921177
0.880254030228, 0.127912957942, -0.247110841697, -9.86808445928, 0.370887503, 0.0346959277, -9.882357338, 0.297667274748, 0.567666109842, -9.83262963535, 0.21834506225, 0.45762732225, -10.0707921177
0.890423059464, 0.129328259228, -0.246006934927, -9.86585730964, 0.3780659708, 0.023928226, -9.86381296285, 0.296857386154, 0.571037206903, -9.83021557308, 0.2105683888, 0.47437708045, -10.0384890127
0.900640010834, 0.129328259228, -0.246006934927, -9.86585730964, 0.3780659708, 0.023928226, -9.86381296285, 0.296857386154, 0.571037206903, -9.83021557308, 0.2105683888, 0.47437708045, -10.0384890127
0.910820007324, 0.128209207785, -0.24579108618, -9.86522874795, 0.3541377448, 0.01615155255, -9.8775716928, 0.296965974328, 0.570661422053, -9.83103394529, 0.2189432679, 0.4402793584, -10.0683992951
0.921032905579, 0.128209207785, -0.24579108618, -9.86522874795, 0.3541377448, 0.01615155255, -9.8775716928, 0.296965974328, 0.570661422053, -9.83103394529, 0.2189432679, 0.4402793584, -10.0683992951
0.931198120117, 0.129774345782, -0.247032515867, -9.86496214526, 0.37986058775, 0.00179461695, -9.88056272105, 0.2953289073, 0.568528598737, -9.83099281293, 0.20159530405, 0.4223331889, -10.0606226217
0.941394090652, 0.129774345782, -0.247032515867, -9.86496214526, 0.37986058775, 0.00179461695, -9.88056272105, 0.2953289073, 0.568528598737, -9.83099281293, 0.20159530405, 0.4223331889, -10.0606226217
0.951548099518, 0.129774345782, -0.247032515867, -9.86496214526, 0.37986058775, 0.00179461695, -9.88056272105, 0.2953289073, 0.568528598737, -9.83099281293, 0.20159530405, 0.4223331889, -10.0606226217
0.961709022522, 0.128491044554, -0.24713285298, -9.86699538431, 0.3529413335, 0.011964113, -9.90329453575, 0.29702603692, 0.568702777529, -9.83269059019, 0.2333002035, 0.44327038665, -10.0779705855
0.972055912018, 0.127635176273, -0.245667821692, -9.86595391233, 0.3529413335, 0.011964113, -9.90329453575, 0.296519554368, 0.570594334826, -9.83403912803, 0.2129612114, 0.4606183505, -10.0761759686
0.982284069061, 0.127635176273, -0.245667821692, -9.86595391233, 0.35593236175, 0.0275174599, -9.87458066455, 0.296519554368, 0.570594334826, -9.83403912803, 0.2129612114, 0.4606183505, -10.0761759686
0.992475032806, 0.127635176273, -0.245667821692, -9.86595391233, 0.35593236175, 0.0275174599, -9.87458066455, 0.296519554368, 0.570594334826, -9.83403912803, 0.2129612114, 0.4606183505, -10.0761759686
1.00271010399, 0.128838973466, -0.246084089918, -9.86914420654, 0.3756731482, 0.01016949605, -9.9158568544, 0.294807488206, 0.568587861363, -9.83375729796, 0.20039889275, 0.4235296002, -10.0612208274
1.01323795319, 0.128838973466, -0.246084089918, -9.86914420654, 0.3756731482, 0.01016949605, -9.9158568544, 0.294807488206, 0.568587861363, -9.83375729796, 0.20039889275, 0.4235296002, -10.0612208274
1.023416996, 0.128247415119, -0.249150656746, -9.86824677573, 0.35892339, -0.0167497582, -9.87816989845, 0.295719271826, 0.567918625982, -9.83493934446, 0.2249253244, 0.43489550755, -10.0755777629
1.03374099731, 0.128247415119, -0.249150656746, -9.86824677573, 0.35892339, -0.0167497582, -9.87816989845, 0.295719271826, 0.567918625982, -9.83493934446, 0.2249253244, 0.43489550755, -10.0755777629
1.04413509369, 0.127954294867, -0.250534693896, -9.87144706586, 0.3613162126, -0.00299102825, -9.918249677, 0.295522927478, 0.565222594364, -9.83462731332, 0.21475582835, 0.4139583098, -10.061819033
1.05432391167, 0.127954294867, -0.250534693896, -9.87144706586, 0.3613162126, -0.00299102825, -9.918249677, 0.295522927478, 0.565222594364, -9.83462731332, 0.21475582835, 0.4139583098, -10.061819033
1.06453108788, 0.126613716471, -0.251720506767, -9.87139611929, 0.3505485109, -0.0023928226, -9.88893760015, 0.295585499825, 0.568299657887, -9.83105635421, 0.21714865095, 0.4689932296, -10.0289177222
1.07474803925, 0.126613716471, -0.251720506767, -9.87139611929, 0.3505485109, -0.0023928226, -9.88893760015, 0.295585499825, 0.568299657887, -9.83105635421, 0.21714865095, 0.4689932296, -10.0289177222
1.0849199295, 0.124808990264, -0.254642175865, -9.87015385607, 0.3445664544, -0.02093719775, -9.87697348715, 0.297615893583, 0.571188656189, -9.8329870596, 0.2368894374, 0.4701896409, -10.0803634081
1.09513092041, 0.124808990264, -0.254642175865, -9.87015385607, 0.3445664544, -0.02093719775, -9.87697348715, 0.297615893583, 0.571188656189, -9.8329870596, 0.2368894374, 0.4701896409, -10.0803634081
1.10542011261, 0.124808990264, -0.254642175865, -9.87015385607, 0.3445664544, -0.02093719775, -9.87697348715, 0.297615893583, 0.571188656189, -9.8329870596, 0.2368894374, 0.4701896409, -10.0803634081
1.11586999893, 0.124440968542, -0.253562803024, -9.87035187161, 0.35712877305, 0.01615155255, -9.89013401145, 0.29782809271, 0.567986159855, -9.8356818235, 0.22073788485, 0.41216369285, -10.0899346985
1.12601804733, 0.127459700633, -0.251753879556, -9.87124793238, 0.39062828945, 0.02452643165, -9.89731247925, 0.296882481189, 0.567795838579, -9.83391967145, 0.22073788485, 0.41216369285, -10.0899346985
1.1367430687, 0.127459700633, -0.251753879556, -9.87124793238, 0.39062828945, 0.02452643165, -9.89731247925, 0.296882481189, 0.567795838579, -9.83391967145, 0.2093719775, 0.4390829471, -10.048060303
1.1469669342, 0.129219430475, -0.250305310131, -9.87223384876, 0.39062828945, 0.02452643165, -9.89731247925, 0.29591178969, 0.570615577681, -9.83089804105, 0.2093719775, 0.4390829471, -10.048060303
1.1572470665, 0.129219430475, -0.250305310131, -9.87223384876, 0.38105699905, 0.0227318147, -9.8991070962, 0.29591178969, 0.570615577681, -9.83089804105, 0.2081755662, 0.4689932296, -10.0337033674
1.16741895676, 0.129219430475, -0.250305310131, -9.87223384876, 0.38105699905, 0.0227318147, -9.8991070962, 0.29591178969, 0.570615577681, -9.83089804105, 0.2081755662, 0.4689932296, -10.0337033674
1.17761611938, 0.128350544167, -0.256000603753, -9.87048906864, 0.3565305674, -0.04725824635, -9.8727860476, 0.296713143161, 0.566752542418, -9.82770000917, 0.2249253244, 0.40498522505, -10.0289177222
1.18789601326, 0.128350544167, -0.256000603753, -9.87048906864, 0.3565305674, -0.04725824635, -9.8727860476, 0.296713143161, 0.566752542418, -9.82770000917, 0.2249253244, 0.40498522505, -10.0289177222
1.19823002815, 0.12972208683, -0.249341716707, -9.86969643388, 0.3780659708, 0.0705882667, -9.88056272105, 0.296237949985, 0.564352580851, -9.82805209099, 0.2129612114, 0.41575292675, -10.0612208274
1.20842504501, 0.12972208683, -0.249341716707, -9.86969643388, 0.3780659708, 0.0705882667, -9.88056272105, 0.296237949985, 0.564352580851, -9.82805209099, 0.2129612114, 0.41575292675, -10.0612208274
1.21860790253, 0.130178807882, -0.251125391817, -9.87263211706, 0.37028929735, -0.0071784678, -9.9170532657, 0.295870096691, 0.561534589226, -9.82789040011, 0.21355941705, 0.4091726646, -10.0564351822
1.22878503799, 0.130178807882, -0.251125391817, -9.87263211706, 0.37028929735, -0.0071784678, -9.9170532657, 0.295870096691, 0.561534589226, -9.82789040011, 0.21355941705, 0.4091726646, -10.0564351822
1.23895192146, 0.129991651179, -0.25291016111, -9.87306087102, 0.36430724085, -0.00897308475, -9.89491965665, 0.296496157767, 0.561630501624, -9.82936003357, 0.22313070745, 0.4354937132, -10.0725867347
1.24918103218, 0.129991651179, -0.25291016111, -9.87306087102, 0.36430724085, -0.00897308475, -9.89491965665, 0.296496157767, 0.561630501624, -9.82936003357, 0.22313070745, 0.4354937132, -10.0725867347
1.25943398476, 0.176243968586, -0.246679959459, -9.90616859864, 0.82851482525, 0.0693918554, -10.2221381472, 0.30034974381, 0.562015925606, -9.82667472582, 0.2560320182, 0.43848474145, -10.0325069561
1.26963710785, 0.176243968586, -0.246679959459, -9.90616859864, 0.82851482525, 0.0693918554, -10.2221381472, 0.30034974381, 0.562015925606, -9.82667472582, 0.2560320182, 0.43848474145, -10.0325069561
1.27978897095, 0.171689578073, -0.250344965548, -9.9022865754, 0.36670006345, -0.02333002035, -9.88534836625, 0.301006404694, 0.555962006736, -9.82904359406, 0.22791635265, 0.3744767369, -10.0803634081
1.28998994827, 0.171689578073, -0.250344965548, -9.9022865754, 0.36670006345, -0.02333002035, -9.88534836625, 0.301006404694, 0.555962006736, -9.82904359406, 0.22791635265, 0.3744767369, -10.0803634081
1.30024194717, 0.16782990887, -0.251789033513, -9.89879275449, 0.36909288605, -0.0047856452, -9.88534836625, 0.29944385915, 0.553624149132, -9.8287229323, 0.20638094925, 0.4055834307, -10.0558369765
1.31043410301, 0.16782990887, -0.251789033513, -9.89879275449, 0.36909288605, -0.0047856452, -9.88534836625, 0.29944385915, 0.553624149132, -9.8287229323, 0.20638094925, 0.4055834307, -10.0558369765
1.32092499733, 0.165014232803, -0.266847424632, -9.89762239431, 0.36909288605, -0.0047856452, -9.88534836625, 0.300011646805, 0.550981692204, -9.83076733876, 0.20638094925, 0.4055834307, -10.0558369765
1.33152699471, 0.165014232803, -0.266847424632, -9.89762239431, 0.3756731482, -0.1423729447, -9.9050891527, 0.300011646805, 0.550981692204, -9.83076733876, 0.2261217357, 0.40019957985, -10.0791669969
1.34170508385, 0.162480124343, -0.262154704314, -9.89274055399, 0.3756731482, -0.1423729447, -9.9050891527, 0.300522655694, 0.551594509218, -9.82997519971, 0.2261217357, 0.40019957985, -10.0791669969
1.35199308395, 0.162480124343, -0.262154704314, -9.89274055399, 0.3756731482, 0.04007977855, -9.8668039911, 0.300522655694, 0.551594509218, -9.82997519971, 0.2261217357, 0.43010986235, -10.0528459482
1.3621609211, 0.162480124343, -0.262154704314, -9.89274055399, 0.3756731482, 0.04007977855, -9.8668039911, 0.300522655694, 0.551594509218, -9.82997519971, 0.2261217357, 0.43010986235, -10.0528459482
1.37233090401, 0.159122656559, -0.263374927442, -9.89133792595, 0.3649054465, -0.0143569356, -9.8967142736, 0.300982563695, 0.552504967922, -9.83231312337, 0.2261217357, 0.43369909625, -10.0833544364
1.38252401352, 0.159122656559, -0.263374927442, -9.89133792595, 0.3649054465, -0.0143569356, -9.8967142736, 0.300982563695, 0.552504967922, -9.83231312337, 0.2261217357, 0.43369909625, -10.0833544364
1.39268803596, 0.153708112953, -0.262618690743, -9.89019520184, 0.3409772205, 0.00418743955, -9.8979106849, 0.301516122025, 0.554999356574, -9.83064855908, 0.227318147, 0.45044885445, -10.0456674804
1.40283989906, 0.153708112953, -0.262618690743, -9.89019520184, 0.3409772205, 0.00418743955, -9.8979106849, 0.301516122025, 0.554999356574, -9.83064855908, 0.227318147, 0.45044885445, -10.0456674804
1.41309499741, 0.151766231393, -0.259545255114, -9.88743195376, 0.37028929735, 0.02811566555, -9.88056272105, 0.300440989833, 0.556705921277, -9.83130399156, 0.2117648001, 0.4450650036, -10.0672028838
1.42357492447, 0.151766231393, -0.259545255114, -9.88743195376, 0.37028929735, 0.02811566555, -9.88056272105, 0.300440989833, 0.556705921277, -9.83130399156, 0.2117648001, 0.4450650036, -10.0672028838
1.43376207352, 0.148762306123, -0.257138086437, -9.88799587931, 0.3577269787, 0.02452643165, -9.9110712092, 0.29899480634, 0.545021484644, -9.83506437073, 0.2069791549, 0.31286155495, -10.0989077833
1.44394111633, 0.148762306123, -0.257138086437, -9.88799587931, 0.3577269787, 0.02452643165, -9.9110712092, 0.29899480634, 0.545021484644, -9.83506437073, 0.2069791549, 0.31286155495, -10.0989077833
1.45415401459, 0.146537337901, -0.252279709204, -9.88748646269, 0.3625126239, 0.0514456859, -9.90090171315, 0.299188755321, 0.54569193733, -9.8355175043, 0.22193429615, 0.4247260115, -10.0695957064
1.46440005302, 0.146537337901, -0.252279709204, -9.88748646269, 0.3625126239, 0.0514456859, -9.90090171315, 0.299188755321, 0.54569193733, -9.8355175043, 0.22193429615, 0.4247260115, -10.0695957064
1.4746029377, 0.146269662886, -0.249223222123, -9.88475480627, 0.37986058775, 0.0382851616, -9.87816989845, 0.298824924319, 0.543543598757, -9.83478873378, 0.2165504453, 0.3972085516, -10.0582297991
1.48478198051, 0.146269662886, -0.249223222123, -9.88475480627, 0.37986058775, 0.0382851616, -9.87816989845, 0.298824924319, 0.543543598757, -9.83478873378, 0.2165504453, 0.3972085516, -10.0582297991
1.49539208412, 0.144533241247, -0.248984847481, -9.88516770261, 0.3649054465, 0.0131605243, -9.90688376965, 0.298796579242, 0.546395739241, -9.83616673953, 0.21954147355, 0.4450650036, -10.0785687912
1.50562500954, 0.144533241247, -0.248984847481, -9.88516770261, 0.3649054465, 0.0131605243, -9.90688376965, 0.298796579242, 0.546395739241, -9.83616673953, 0.21954147355, 0.4450650036, -10.0785687912
1.51583600044, 0.142073153298, -0.246915872788, -9.88452235971, 0.35593236175, 0.03170489945, -9.8967142736, 0.298292504153, 0.545373431777, -9.83597125113, 0.21475582835, 0.4091726646, -10.0642118556
1.52605199814, 0.142073153298, -0.246915872788, -9.88452235971, 0.35593236175, 0.03170489945, -9.8967142736, 0.298292504153, 0.545373431777, -9.83597125113, 0.21475582835, 0.4091726646, -10.0642118556
1.5362200737, 0.141055485443, -0.249719799634, -9.88394155109, 0.36789647475, -0.01495514125, -9.8967142736, 0.298915606742, 0.548939897434, -9.82927487, 0.22552353005, 0.45403808835, -9.99900743975
1.54637598991, 0.141055485443, -0.249719799634, -9.88394155109, 0.36789647475, -0.01495514125, -9.8967142736, 0.298915606742, 0.548939897434, -9.82927487, 0.22552353005, 0.45403808835, -9.99900743975
1.556620121, 0.138285146859, -0.248055894246, -9.88234205318, 0.36789647475, -0.01495514125, -9.8967142736, 0.298339808338, 0.549936355621, -9.82719628426, 0.22552353005, 0.45403808835, -9.99900743975
1.56682610512, 0.138285146859, -0.248055894246, -9.88234205318, 0.3493520996, 0.02691925425, -9.8859465719, 0.298339808338, 0.549936355621, -9.82719628426, 0.2141576227, 0.4319044793, -10.0384890127
1.57704091072, 0.138124844168, -0.245720891486, -9.87982573488, 0.37268211995, 0.03529413335, -9.8751788702, 0.296744819604, 0.553106349459, -9.82341129902, 0.203389921, 0.454636294, -10.0193464318
1.58722305298, 0.138124844168, -0.245720891486, -9.87982573488, 0.37268211995, 0.03529413335, -9.8751788702, 0.296744819604, 0.553106349459, -9.82341129902, 0.203389921, 0.454636294, -10.0193464318
1.59740900993, 0.138124844168, -0.245720891486, -9.87982573488, 0.37268211995, 0.03529413335, -9.8751788702, 0.296744819604, 0.553106349459, -9.82341129902, 0.203389921, 0.454636294, -10.0193464318
1.60759592056, 0.137143083836, -0.243619389003, -9.88067171779, 0.36430724085, 0.03529413335, -9.906285564, 0.296206638219, 0.556796831823, -9.8259868688, 0.21236300575, 0.4630111731, -10.0791669969
1.61774396896, 0.136857705187, -0.258717077227, -9.87808315077, 0.37028929735, -0.13459627125, -9.8727860476, 0.296858865707, 0.555631723576, -9.82692900861, 0.2237289131, 0.41814574935, -10.0654082669
1.62793493271, 0.136857705187, -0.258717077227, -9.87808315077, 0.37028929735, -0.13459627125, -9.8727860476, 0.296858865707, 0.555631723576, -9.82692900861, 0.2237289131, 0.41814574935, -10.0654082669
1.63810896873, 0.136301761579, -0.257409675945, -9.87623200497, 0.3672982691, 0.0143569356, -9.8775716928, 0.297266408751, 0.552130482988, -9.82646088201, 0.22193429615, 0.3936193177, -10.0522477426
1.64832091331, 0.136301761579, -0.257409675945, -9.87623200497, 0.3672982691, 0.0143569356, -9.8775716928, 0.297266408751, 0.552130482988, -9.82646088201, 0.22193429615, 0.3936193177, -10.0522477426
1.65849804878, 0.135382668376, -0.257489246655, -9.87701861692, 0.36311082955, 0.00179461695, -9.90209812445, 0.299487635006, 0.555619449174, -9.82879131406, 0.2404786713, 0.46002014485, -10.0797652025
1.66872596741, 0.135382668376, -0.257489246655, -9.87701861692, 0.36311082955, 0.00179461695, -9.90209812445, 0.299487635006, 0.555619449174, -9.82879131406, 0.2404786713, 0.46002014485, -10.0797652025
1.67895197868, 0.133897458278, -0.259714400635, -9.87515428338, 0.3565305674, -0.01974078645, -9.8763752815, 0.298256428126, 0.554691720322, -9.82801731578, 0.2404786713, 0.46002014485, -10.0797652025
1.68984508514, 0.133897458278, -0.259714400635, -9.87515428338, 0.3565305674, -0.01974078645, -9.8763752815, 0.298256428126, 0.554691720322, -9.82801731578, 0.2081755662, 0.41934216065, -10.0510513313
1.7000169754, 0.132500948625, -0.271168688486, -9.87598884692, 0.35593236175, -0.11425727915, -9.9014999188, 0.297806368148, 0.551344300625, -9.82576538265, 0.21475582835, 0.39421752335, -10.0354979844
1.71013593674, 0.132500948625, -0.271168688486, -9.87598884692, 0.35593236175, -0.11425727915, -9.9014999188, 0.297806368148, 0.551344300625, -9.82576538265, 0.21475582835, 0.39421752335, -10.0354979844
1.72030997276, 0.132500948625, -0.271168688486, -9.87598884692, 0.35593236175, -0.11425727915, -9.9014999188, 0.297806368148, 0.551344300625, -9.82576538265, 0.21475582835, 0.39421752335, -10.0354979844
1.73046398163, 0.134474400448, -0.268436664382, -9.87518461942, 0.38823546685, 0.01615155255, -9.8859465719, 0.297939699253, 0.548391443462, -9.82762697955, 0.2201396792, 0.394815729, -10.0743813517
1.74062490463, 0.133080017143, -0.268370665289, -9.87410189128, 0.38823546685, 0.01615155255, -9.8859465719, 0.297880235553, 0.548784720831, -9.82690959416, 0.2201396792, 0.394815729, -10.0743813517
1.75121593475, 0.133080017143, -0.268370665289, -9.87410189128, 0.3565305674, -0.00777667345, -9.882357338, 0.297880235553, 0.548784720831, -9.82690959416, 0.21834506225, 0.42532421715, -10.0504531256
1.76196694374, 0.131944713299, -0.26861036893, -9.87294797425, 0.3565305674, -0.00777667345, -9.882357338, 0.298604385568, 0.549198491028, -9.82775946143, 0.21834506225, 0.42532421715, -10.0504531256
1.77211904526, 0.131944713299, -0.26861036893, -9.87294797425, 0.3577269787, -0.0107677017, -9.88056272105, 0.298604385568, 0.549198491028, -9.82775946143, 0.2261217357, 0.4259224228, -10.0654082669
1.78233098984, 0.131944713299, -0.26861036893, -9.87294797425, 0.3577269787, -0.0107677017, -9.88056272105, 0.298604385568, 0.549198491028, -9.82775946143, 0.2261217357, 0.4259224228, -10.0654082669
1.79276704788, 0.130384554754, -0.264160098137, -9.8729862191, 0.35234312785, 0.035892339, -9.89133042275, 0.298717735496, 0.548972678555, -9.82553331373, 0.22073788485, 0.4199403663, -10.0354979844
1.80296111107, 0.130384554754, -0.264160098137, -9.8729862191, 0.35234312785, 0.035892339, -9.89133042275, 0.298717735496, 0.548972678555, -9.82553331373, 0.22073788485, 0.4199403663, -10.0354979844
1.81311511993, 0.126946512853, -0.267153860529, -9.87140548421, 0.33200413575, -0.03409772205, -9.8751788702, 0.298221544781, 0.55140155219, -9.82927255503, 0.21475582835, 0.4462614149, -10.0929257268
1.82340097427, 0.126946512853, -0.267153860529, -9.87140548421, 0.33200413575, -0.03409772205, -9.8751788702, 0.298221544781, 0.55140155219, -9.82927255503, 0.21475582835, 0.4462614149, -10.0929257268
1.83389806747, 0.126604021133, -0.263028702271, -9.8705212079, 0.35952159565, 0.03409772205, -9.88056272105, 0.298133896528, 0.549220637216, -9.82880935605, 0.21834506225, 0.40259240245, -10.0546405652
1.84405303001, 0.126604021133, -0.263028702271, -9.8705212079, 0.35952159565, 0.03409772205, -9.88056272105, 0.298133896528, 0.549220637216, -9.82880935605, 0.21834506225, 0.40259240245, -10.0546405652
1.85422110558, 0.126604021133, -0.263028702271, -9.8705212079, 0.35952159565, 0.03409772205, -9.88056272105, 0.298133896528, 0.549220637216, -9.82880935605, 0.21834506225, 0.40259240245, -10.0546405652
1.86453008652, 0.126774343105, -0.262905293739, -9.86966553865, 0.36430724085, -0.00179461695, -9.8799645154, 0.297038063495, 0.547915839954, -9.82659786002, 0.2081755662, 0.4091726646, -10.0366943957
1.87485408783, 0.126688350619, -0.264768304705, -9.87176682344, 0.36191441825, -0.0215354034, -9.9086783866, 0.297068763371, 0.552603937789, -9.82753872127, 0.21834506225, 0.4677968183, -10.0660064725
1.88502001762, 0.126688350619, -0.264768304705, -9.87176682344, 0.36191441825, -0.0215354034, -9.9086783866, 0.297068763371, 0.552603937789, -9.82753872127, 0.21834506225, 0.4677968183, -10.0660064725
1.89517307281, 0.127448445292, -0.263812909714, -9.87060713094, 0.37028929735, 0.0047856452, -9.87816989845, 0.296139264219, 0.55036260482, -9.82539446815, 0.20877377185, 0.4031906081, -10.03609619
1.90540409088, 0.127448445292, -0.263812909714, -9.87060713094, 0.37028929735, 0.0047856452, -9.87816989845, 0.296139264219, 0.55036260482, -9.82539446815, 0.20877377185, 0.4031906081, -10.03609619
1.91556310654, 0.125978990158, -0.265046773998, -9.87069999843, 0.34875389395, -0.01615155255, -9.8895358058, 0.296738408542, 0.552532844698, -9.82501997503, 0.22313070745, 0.4450650036, -10.0516495369
1.92574810982, 0.125978990158, -0.265046773998, -9.87069999843, 0.34875389395, -0.01615155255, -9.8895358058, 0.296738408542, 0.552532844698, -9.82501997503, 0.22313070745, 0.4450650036, -10.0516495369
1.93594408035, 0.125553789012, -0.261251965523, -9.86988627069, 0.3577269787, 0.03290131075, -9.88056272105, 0.295243739223, 0.551554852903, -9.82647754817, 0.20279171535, 0.41575292675, -10.0695957064
1.9461710453, 0.125553789012, -0.261251965523, -9.86988627069, 0.3577269787, 0.03290131075, -9.88056272105, 0.295243739223, 0.551554852903, -9.82647754817, 0.20279171535, 0.41575292675, -10.0695957064
1.95635199547, 0.126487160411, -0.259033049196, -9.87268332906, 0.370887503, 0.02093719775, -9.9158568544, 0.29611189774, 0.556716537353, -9.82838756965, 0.2249253244, 0.4761716974, -10.0755777629
1.96653103828, 0.126487160411, -0.259033049196, -9.87268332906, 0.370887503, 0.02093719775, -9.9158568544, 0.29611189774, 0.556716537353, -9.82838756965, 0.2249253244, 0.4761716974, -10.0755777629
1.97677993774, 0.12660934789, -0.256437818851, -9.87274803843, 0.3637090352, 0.02691925425, -9.89133042275, 0.297192343231, 0.551192557307, -9.82992712728, 0.22791635265, 0.3744767369, -10.073783146
1.98721694946, 0.12660934789, -0.256437818851, -9.87274803843, 0.3637090352, 0.02691925425, -9.89133042275, 0.297192343231, 0.551192557307, -9.82992712728, 0.22791635265, 0.3744767369, -10.073783146
1.99737906456, 0.125941649276, -0.254640496626, -9.871550045, 0.35593236175, 0.0215354034, -9.8787681041, 0.297566538523, 0.556988676967, -9.82927882994, 0.22193429615, 0.4821537539, -10.0534441539
2.00759911537, 0.125941649276, -0.254640496626, -9.871550045, 0.35593236175, 0.0215354034, -9.8787681041, 0.297566538523, 0.556988676967, -9.82927882994, 0.22193429615, 0.4821537539, -10.0534441539
2.01788711548, 0.126596952388, -0.253920215098, -9.87292449407, 0.3684946804, 0.01256231865, -9.90329453575, 0.297185467506, 0.55909451528, -9.82953285025, 0.21475582835, 0.4510470601, -10.061819033
2.02813410759, 0.126596952388, -0.253920215098, -9.87292449407, 0.3684946804, 0.01256231865, -9.90329453575, 0.297185467506, 0.55909451528, -9.82953285025, 0.21475582835, 0.4510470601, -10.061819033
2.03829503059, 0.12587067276, -0.254169270199, -9.87272580468, 0.3553341561, 0.0035892339, -9.88893760015, 0.29696214472, 0.561169231457, -9.83113734152, 0.21595223965, 0.45284167705, -10.0755777629
2.04852509499, 0.12587067276, -0.254169270199, -9.87272580468, 0.3553341561, 0.0035892339, -9.88893760015, 0.29696214472, 0.561169231457, -9.83113734152, 0.21595223965, 0.45284167705, -10.0755777629
2.05890798569, 0.124259892054, -0.249727415719, -9.87188895801, 0.3457628657, 0.0502492746, -9.882357338, 0.297299539298, 0.562318629236, -9.83383761553, 0.2213360905, 0.44566320925, -10.0881400816
2.06906795502, 0.124259892054, -0.249727415719, -9.87188895801, 0.3457628657, 0.0502492746, -9.882357338, 0.297299539298, 0.562318629236, -9.83383761553, 0.2213360905, 0.44566320925, -10.0881400816
2.07923793793, 0.123408395068, -0.252310008837, -9.87221256618, 0.3517449222, -0.0155533469, -9.8931250397, 0.297483553288, 0.565686089273, -9.83249916654, 0.2201396792, 0.4689932296, -10.0504531256
2.0894780159, 0.123408395068, -0.252310008837, -9.87221256618, 0.3517449222, -0.0155533469, -9.8931250397, 0.297483553288, 0.565686089273, -9.83249916654, 0.2201396792, 0.4689932296, -10.0504531256
2.09967398643, 0.123479535691, -0.251224570438, -9.87178596675, 0.3601198013, 0.01854437515, -9.8859465719, 0.29645275458, 0.56602487788, -9.83386684675, 0.2081755662, 0.44207397535, -10.0761759686
2.10985994339, 0.123479535691, -0.251224570438, -9.87178596675, 0.3601198013, 0.01854437515, -9.8859465719, 0.29645275458, 0.56602487788, -9.83386684675, 0.2081755662, 0.44207397535, -10.0761759686
2.12007594109, 0.123962306207, -0.249709290794, -9.87194041235, 0.36430724085, 0.023928226, -9.89133042275, 0.296063420827, 0.562561092032, -9.83390134763, 0.21355941705, 0.4043870194, -10.0642118556
2.1302549839, 0.123962306207, -0.249709290794, -9.87194041235, 0.36430724085, 0.023928226, -9.89133042275, 0.296063420827, 0.562561092032, -9.83390134763, 0.21355941705, 0.4043870194, -10.0642118556
2.1404941082, 0.123978055717, -0.2476875129, -9.87034461701, 0.3601198013, 0.03050848815, -9.8739824589, 0.297507637399, 0.561956148499, -9.83195831978, 0.23150558655, 0.4295116567, -10.0444710691
2.15083789825, 0.123978055717, -0.2476875129, -9.87034461701, 0.3601198013, 0.03050848815, -9.8739824589, 0.297507637399, 0.561956148499, -9.83195831978, 0.23150558655, 0.4295116567, -10.0444710691
2.16101813316, 0.123633306885, -0.25011517291, -9.87195925001, 0.3565305674, -0.011964113, -9.90449094705, 0.298029764969, 0.560634031974, -9.83242295563, 0.2237289131, 0.42173498325, -10.0666046782
2.17120599747, 0.123633306885, -0.25011517291, -9.87195925001, 0.3565305674, -0.011964113, -9.90449094705, 0.298029764969, 0.560634031974, -9.83242295563, 0.2237289131, 0.42173498325, -10.0666046782
2.1813750267, 0.123622135761, -0.250505449969, -9.87185708503, 0.35952159565, 0.0059820565, -9.88893760015, 0.297183627352, 0.560341435577, -9.83182417828, 0.2105683888, 0.430708068, -10.0564351822
2.19158911705, 0.123622135761, -0.250505449969, -9.87185708503, 0.35952159565, 0.0059820565, -9.88893760015, 0.297183627352, 0.560341435577, -9.83182417828, 0.2105683888, 0.430708068, -10.0564351822
2.20195698738, 0.12229602932, -0.252711136837, -9.87032944298, 0.34636107135, -0.01256231865, -9.87458066455, 0.297977438187, 0.559958457689, -9.82996922623, 0.2261217357, 0.4295116567, -10.0432746578
2.2123799324, 0.12229602932, -0.252711136837, -9.87032944298, 0.34636107135, -0.01256231865, -9.87458066455, 0.297977438187, 0.559958457689, -9.82996922623, 0.2261217357, 0.4295116567, -10.0432746578
2.22252392769, 0.122239124258, -0.254157869933, -9.87146702887, 0.3577269787, -0.0071784678, -9.89970530185, 0.297854380028, 0.55877628968, -9.83254702951, 0.2177468566, 0.4211367776, -10.085747259
2.23269891739, 0.122239124258, -0.254157869933, -9.87146702887, 0.3577269787, -0.0071784678, -9.89970530185, 0.297854380028, 0.55877628968, -9.83254702951, 0.2177468566, 0.4211367776, -10.085747259
2.24287104607, 0.124820014562, -0.251810875255, -9.87027749526, 0.3840480273, 0.02931207685, -9.8775716928, 0.29888021842, 0.559088211467, -9.82924391935, 0.22911276395, 0.43489550755, -10.0295159279
2.25306606293, 0.124820014562, -0.251810875255, -9.87027749526, 0.3840480273, 0.02931207685, -9.8775716928, 0.29888021842, 0.559088211467, -9.82924391935, 0.22911276395, 0.43489550755, -10.0295159279
2.26321411133, 0.125228557756, -0.251852120385, -9.86908727388, 0.3649054465, 0.00777667345, -9.8763752815, 0.300401678623, 0.559010017685, -9.82914250733, 0.23509482045, 0.43130627365, -10.0582297991
2.27392601967, 0.125228557756, -0.251852120385, -9.86908727388, 0.3649054465, 0.00777667345, -9.8763752815, 0.300401678623, 0.559010017685, -9.82914250733, 0.23509482045, 0.43130627365, -10.0582297991
2.28416991234, 0.125476605501, -0.252666908346, -9.86981069159, 0.3637090352, -0.0, -9.894321451, 0.301292428286, 0.557444129157, -9.83114495628, 0.23030917525, 0.4163511324, -10.0791669969
2.29431390762, 0.125476605501, -0.252666908346, -9.86981069159, 0.3637090352, -0.0, -9.894321451, 0.301292428286, 0.557444129157, -9.83114495628, 0.23030917525, 0.4163511324, -10.0791669969
2.30448293686, 0.124682898865, -0.252622550166, -9.86926535624, 0.3637090352, -0.0, -9.894321451, 0.299701280382, 0.556991958521, -9.83085344056, 0.23030917525, 0.4163511324, -10.0791669969
2.31494808197, 0.124682898865, -0.252622550166, -9.86926535624, 0.35353953915, 0.00777667345, -9.882357338, 0.299701280382, 0.556991958521, -9.83085344056, 0.20638094925, 0.4259224228, -10.0582297991
2.32510709763, 0.124626589109, -0.2479764443, -9.86805670763, 0.3601198013, 0.0538385085, -9.8751788702, 0.300662069869, 0.554730567434, -9.82909556229, 0.20638094925, 0.4259224228, -10.0582297991
2.3357129097, 0.124626589109, -0.2479764443, -9.86805670763, 0.3601198013, 0.0538385085, -9.8751788702, 0.300662069869, 0.554730567434, -9.82909556229, 0.23030917525, 0.40737804765, -10.0432746578
2.3460021019, 0.126669630103, -0.24678597727, -9.8678064118, 0.3601198013, 0.0538385085, -9.8751788702, 0.298715213852, 0.554131009016, -9.82894916541, 0.23030917525, 0.40737804765, -10.0432746578
2.35640907288, 0.126669630103, -0.24678597727, -9.8678064118, 0.38105699905, 0.023928226, -9.8835537493, 0.298715213852, 0.554131009016, -9.82894916541, 0.2021935097, 0.42173498325, -10.0576315934
2.36656308174, 0.127910161348, -0.246312762593, -9.86626509312, 0.37507494255, 0.0179461695, -9.870393225, 0.298338916432, 0.555984229039, -9.8301932812, 0.21595223965, 0.44566320925, -10.0713903234
2.37672901154, 0.127910161348, -0.246312762593, -9.86626509312, 0.37507494255, 0.0179461695, -9.870393225, 0.298338916432, 0.555984229039, -9.8301932812, 0.21595223965, 0.44566320925, -10.0713903234
2.3869600296, 0.128368613253, -0.246006510514, -9.86954391038, 0.3684946804, 0.0167497582, -9.9170532657, 0.300452891919, 0.558788717795, -9.82951836847, 0.2404786713, 0.4570291166, -10.0534441539
2.39728093147, 0.128368613253, -0.246006510514, -9.86954391038, 0.3684946804, 0.0167497582, -9.9170532657, 0.300452891919, 0.558788717795, -9.82951836847, 0.2404786713, 0.4570291166, -10.0534441539
2.40746092796, 0.128368613253, -0.246006510514, -9.86954391038, 0.3637090352, 0.00658026215, -9.90329453575, 0.299304621042, 0.555569983436, -9.83058592284, 0.2404786713, 0.4570291166, -10.0534441539
2.41857600212, 0.128302655448, -0.246747833247, -9.87111897291, 0.3637090352, 0.00658026215, -9.90329453575, 0.299304621042, 0.555569983436, -9.83058592284, 0.20997018315, 0.3996013742, -10.0701939121
2.42895293236, 0.127645087773, -0.248790896702, -9.87163922072, 0.3577269787, -0.0071784678, -9.894321451, 0.300843461548, 0.557159664887, -9.82915389916, 0.20997018315, 0.3996013742, -10.0701939121
2.43934392929, 0.127645087773, -0.248790896702, -9.87163922072, 0.3577269787, -0.0071784678, -9.894321451, 0.300843461548, 0.557159664887, -9.82915389916, 0.2356930261, 0.44446679795, -10.0462656861
2.44952702522, 0.125916686131, -0.251407321157, -9.87665380669, 0.34636107135, -0.01495514125, -9.9397850804, 0.298459722408, 0.558051993108, -9.83151413232, 0.19800607015, 0.4390829471, -10.0827562307
2.45968604088, 0.125916686131, -0.251407321157, -9.87665380669, 0.34636107135, -0.01495514125, -9.9397850804, 0.298459722408, 0.558051993108, -9.83151413232, 0.19800607015, 0.4390829471, -10.0827562307
2.47001099586, 0.125916686131, -0.251407321157, -9.87665380669, 0.34636107135, -0.01495514125, -9.9397850804, 0.298459722408, 0.558051993108, -9.83151413232, 0.19800607015, 0.4390829471, -10.0827562307
2.48034501076, 0.126514664993, -0.253463000342, -9.87410810739, 0.36789647475, -0.011964113, -9.8691968137, 0.296972383397, 0.556701548168, -9.82969018487, 0.2045863323, 0.4175475437, -10.0432746578
2.49055504799, 0.125676972973, -0.253099750702, -9.87522675023, 0.36789647475, -0.011964113, -9.8691968137, 0.297129292412, 0.558776278796, -9.82960396686, 0.2045863323, 0.4175475437, -10.0432746578
2.50122904778, 0.125676972973, -0.253099750702, -9.87522675023, 0.3541377448, 0.01016949605, -9.90329453575, 0.297129292412, 0.558776278796, -9.82960396686, 0.21954147355, 0.45044885445, -10.0588280047
2.51157212257, 0.125700717501, -0.251456773597, -9.87760940177, 0.36191441825, 0.02333002035, -9.9170532657, 0.297988357306, 0.558729278281, -9.82737283031, 0.22671994135, 0.43130627365, -10.0372926013
2.52186703682, 0.125700717501, -0.251456773597, -9.87760940177, 0.36191441825, 0.02333002035, -9.9170532657, 0.297988357306, 0.558729278281, -9.82737283031, 0.22671994135, 0.43130627365, -10.0372926013
2.53201198578, 0.125700717501, -0.251456773597, -9.87760940177, 0.36191441825, 0.02333002035, -9.9170532657, 0.297988357306, 0.558729278281, -9.82737283031, 0.22671994135, 0.43130627365, -10.0372926013
2.54228997231, 0.128174730741, -0.249918273637, -9.87694222161, 0.3864408499, 0.023928226, -9.88893760015, 0.298522233451, 0.554439717703, -9.8257237308, 0.22432711875, 0.3888336725, -10.0408818352
2.55267500877, 0.128174730741, -0.249918273637, -9.87694222161, 0.3864408499, 0.023928226, -9.88893760015, 0.298522233451, 0.554439717703, -9.8257237308, 0.22432711875, 0.3888336725, -10.0408818352
2.5628631115, 0.128174730741, -0.249918273637, -9.87694222161, 0.3864408499, 0.023928226, -9.88893760015, 0.298522233451, 0.554439717703, -9.8257237308, 0.22432711875, 0.3888336725, -10.0408818352
2.57313299179, 0.128846007967, -0.249311291019, -9.8762819389, 0.370887503, 0.01615155255, -9.8883393945, 0.298225054636, 0.551895165613, -9.8272305695, 0.2165504453, 0.4019941968, -10.0707921177
2.58349895477, 0.128846007967, -0.249311291019, -9.8762819389, 0.370887503, 0.01615155255, -9.8883393945, 0.298225054636, 0.551895165613, -9.8272305695, 0.2165504453, 0.4019941968, -10.0707921177
2.59368610382, 0.130108183685, -0.248166801012, -9.87730283972, 0.37746776515, 0.02213360905, -9.90449094705, 0.298555799352, 0.551339865117, -9.8270912102, 0.2225325018, 0.41934216065, -10.0558369765
2.60387706757, 0.130108183685, -0.248166801012, -9.87730283972, 0.37746776515, 0.02213360905, -9.90449094705, 0.298555799352, 0.551339865117, -9.8270912102, 0.2225325018, 0.41934216065, -10.0558369765
2.61405801773, 0.130406653922, -0.248871556391, -9.87427349316, 0.36909288605, 0.0047856452, -9.86500937415, 0.297836519992, 0.551617762015, -9.82756399248, 0.21236300575, 0.4271188341, -10.061819033
2.62426400185, 0.130406653922, -0.248871556391, -9.87427349316, 0.36909288605, 0.0047856452, -9.86500937415, 0.297836519992, 0.551617762015, -9.82756399248, 0.21236300575, 0.4271188341, -10.061819033
2.63443899155, 0.128342275099, -0.246754090242, -9.87417918612, 0.3457628657, 0.0323031051, -9.89133042275, 0.298086477043, 0.553841947868, -9.82745111145, 0.2213360905, 0.44685962055, -10.0564351822
2.64466190338, 0.128342275099, -0.246754090242, -9.87417918612, 0.3457628657, 0.0323031051, -9.89133042275, 0.298086477043, 0.553841947868, -9.82745111145, 0.2213360905, 0.44685962055, -10.0564351822
2.65484690666, 0.128342275099, -0.246754090242, -9.87417918612, 0.3457628657, 0.0323031051, -9.89133042275, 0.298086477043, 0.553841947868, -9.82745111145, 0.2213360905, 0.44685962055, -10.0564351822
2.66506791115, 0.128458412804, -0.245566217487, -9.87140238436, 0.36550365215, 0.0251246373, -9.8644111685, 0.296935565393, 0.556860664742, -9.82681113343, 0.20757736055, 0.4570291166, -10.0510513313
2.67526602745, 0.128802218999, -0.232533019009, -9.87255231724, 0.36789647475, 0.1447657673, -9.90090171315, 0.298053285249, 0.554492761902, -9.82761102621, 0.22911276395, 0.40618163635, -10.0648100613
2.68586397171, 0.128802218999, -0.232533019009, -9.87255231724, 0.36789647475, 0.1447657673, -9.90090171315, 0.298053285249, 0.554492761902, -9.82761102621, 0.22911276395, 0.40618163635, -10.0648100613
2.69607210159, 0.129709850224, -0.232767253378, -9.8722712044, 0.37387853125, 0.0251246373, -9.88774118885, 0.298281565774, 0.556130344942, -9.82803182689, 0.22911276395, 0.40618163635, -10.0648100613
2.7064640522, 0.129709850224, -0.232767253378, -9.8722712044, 0.37387853125, 0.0251246373, -9.88774118885, 0.298281565774, 0.556130344942, -9.82803182689, 0.2213360905, 0.4438685923, -10.061819033
2.71662712097, 0.129709850224, -0.232767253378, -9.8722712044, 0.37387853125, 0.0251246373, -9.88774118885, 0.298281565774, 0.556130344942, -9.82803182689, 0.2213360905, 0.4438685923, -10.061819033
2.72680902481, 0.130227615502, -0.23740478612, -9.87112089437, 0.370887503, -0.0191425808, -9.8787681041, 0.296453119037, 0.557843451938, -9.82888911202, 0.2009970984, 0.4462614149, -10.0666046782
2.73710298538, 0.130227615502, -0.23740478612, -9.87112089437, 0.370887503, -0.0191425808, -9.8787681041, 0.296453119037, 0.557843451938, -9.82888911202, 0.2009970984, 0.4462614149, -10.0666046782
2.74729609489, 0.130274860297, -0.240262513158, -9.87122220608, 0.36670006345, -0.0059820565, -9.89013401145, 0.297140519008, 0.560282556709, -9.82882318073, 0.22432711875, 0.45523449965, -10.0582297991
2.75746202469, 0.130274860297, -0.240262513158, -9.87122220608, 0.36670006345, -0.0059820565, -9.89013401145, 0.297140519008, 0.560282556709, -9.82882318073, 0.22432711875, 0.45523449965, -10.0582297991
2.76765203476, 0.130377201177, -0.241518415062, -9.87173213057, 0.3672982691, 0.0071784678, -9.894321451, 0.295964562032, 0.561939365918, -9.83103702404, 0.20638094925, 0.4498506488, -10.0809616138
2.7782599926, 0.130377201177, -0.241518415062, -9.87173213057, 0.3672982691, 0.0071784678, -9.894321451, 0.295964562032, 0.561939365918, -9.83103702404, 0.20638094925, 0.4498506488, -10.0809616138
2.78845191002, 0.130110384579, -0.236846131971, -9.87266962713, 0.3637090352, 0.06520441585, -9.8991070962, 0.296521356009, 0.563550135336, -9.8299786342, 0.2225325018, 0.4510470601, -10.0504531256
2.79863095284, 0.130110384579, -0.236846131971, -9.87266962713, 0.3637090352, 0.06520441585, -9.8991070962, 0.296521356009, 0.563550135336, -9.8299786342, 0.2225325018, 0.4510470601, -10.0504531256
2.808852911, 0.130110384579, -0.236846131971, -9.87266962713, 0.3637090352, 0.06520441585, -9.8991070962, 0.296521356009, 0.563550135336, -9.8299786342, 0.2225325018, 0.4510470601, -10.0504531256
2.81911802292, 0.128793479471, -0.237965107474, -9.87470978534, 0.3529413335, 0.011964113, -9.9110712092, 0.295407315333, 0.561470414478, -9.82759038978, 0.20638094925, 0.41575292675, -10.03609619
2.82928109169, 0.128793479471, -0.237965107474, -9.87470978534, 0.3529413335, 0.011964113, -9.9110712092, 0.295407315333, 0.561470414478, -9.82759038978, 0.20638094925, 0.41575292675, -10.03609619
2.83947610855, 0.128505573349, -0.235203489832, -9.87618700433, 0.36191441825, 0.04965106895, -9.9074819753, 0.297156424715, 0.563068258475, -9.82813289524, 0.23389840915, 0.45044885445, -10.0630154443
2.84966206551, 0.128505573349, -0.235203489832, -9.87618700433, 0.36191441825, 0.04965106895, -9.9074819753, 0.297156424715, 0.563068258475, -9.82813289524, 0.23389840915, 0.45044885445, -10.0630154443
2.85983490944, 0.128665201794, -0.236785832373, -9.87362816471, 0.3661018578, 0.00897308475, -9.86859860805, 0.299089546548, 0.564984882592, -9.82748455941, 0.23748764305, 0.45523449965, -10.0516495369
2.87003207207, 0.128665201794, -0.236785832373, -9.87362816471, 0.3661018578, 0.00897308475, -9.86859860805, 0.299089546548, 0.564984882592, -9.82748455941, 0.23748764305, 0.45523449965, -10.0516495369
2.88022899628, 0.12886868796, -0.236056400321, -9.87180377356, 0.36670006345, 0.03050848815, -9.87338425325, 0.300649894503, 0.562402763618, -9.82708051886, 0.2356930261, 0.41216369285, -10.0534441539
2.8904800415, 0.12886868796, -0.236056400321, -9.87180377356, 0.36670006345, 0.03050848815, -9.87338425325, 0.300649894503, 0.562402763618, -9.82708051886, 0.2356930261, 0.41216369285, -10.0534441539
2.90063595772, 0.12886868796, -0.236056400321, -9.87180377356, 0.36670006345, 0.03050848815, -9.87338425325, 0.300649894503, 0.562402763618, -9.82708051886, 0.2356930261, 0.41216369285, -10.0534441539
2.9108300209, 0.129051825509, -0.237015066729, -9.87022164209, 0.36670006345, 0.0143569356, -9.8739824589, 0.300797975798, 0.564565398916, -9.82205087829, 0.22313070745, 0.4570291166, -10.0067841132
2.92102193832, 0.128857725913, -0.236202890676, -9.87077180242, 0.36311082955, 0.0311066938, -9.89372324535, 0.298418785233, 0.56693051464, -9.82123307681, 0.19800607015, 0.46121655615, -10.0438728635
2.9313120842, 0.128857725913, -0.236202890676, -9.87077180242, 0.36311082955, 0.0311066938, -9.89372324535, 0.298418785233, 0.56693051464, -9.82123307681, 0.19800607015, 0.46121655615, -10.0438728635
2.94150400162, 0.128563395147, -0.235232649968, -9.87312138423, 0.36191441825, 0.0334995164, -9.9122676205, 0.2983712335, 0.565170782066, -9.82306933978, 0.2189432679, 0.4223331889, -10.0695957064
2.95165300369, 0.128563395147, -0.235232649968, -9.87312138423, 0.36191441825, 0.0334995164, -9.9122676205, 0.2983712335, 0.565170782066, -9.82306933978, 0.2189432679, 0.4223331889, -10.0695957064
2.96192908287, 0.128563395147, -0.235232649968, -9.87312138423, 0.36191441825, 0.0334995164, -9.9122676205, 0.2983712335, 0.565170782066, -9.82306933978, 0.2189432679, 0.4223331889, -10.0695957064
2.97224497795, 0.128836882542, -0.240281669267, -9.87290300582, 0.3672982691, -0.02572284295, -9.88893760015, 0.29749094903, 0.563646843314, -9.82585856718, 0.2105683888, 0.42293139455, -10.0809616138
2.98241591454, 0.128836882542, -0.240281669267, -9.87290300582, 0.3672982691, -0.02572284295, -9.88893760015, 0.29749094903, 0.563646843314, -9.82585856718, 0.2105683888, 0.42293139455, -10.0809616138
2.99260497093, 0.127587507073, -0.240040141435, -9.87186897734, 0.35234312785, 0.02213360905, -9.88056272105, 0.296399590182, 0.562694042393, -9.82483945851, 0.20757736055, 0.4271188341, -10.0456674804
3.00285196304, 0.127587507073, -0.240040141435, -9.87186897734, 0.35234312785, 0.02213360905, -9.88056272105, 0.296399590182, 0.562694042393, -9.82483945851, 0.20757736055, 0.4271188341, -10.0456674804
3.01304507256, 0.128736250621, -0.239942407516, -9.87177583962, 0.37507494255, 0.02093719775, -9.88893760015, 0.297929830949, 0.564528446989, -9.8273320329, 0.23270199785, 0.45403808835, -10.0797652025
3.02323794365, 0.128736250621, -0.239942407516, -9.87177583962, 0.37507494255, 0.02093719775, -9.88893760015, 0.297929830949, 0.564528446989, -9.8273320329, 0.23270199785, 0.45403808835, -10.0797652025
3.03355503082, 0.128992452468, -0.240751755465, -9.87127327172, 0.3672982691, 0.011964113, -9.8847501606, 0.298110636339, 0.56253035666, -9.82419149901, 0.22073788485, 0.4175475437, -10.025926694
3.04404401779, 0.128992452468, -0.240751755465, -9.87127327172, 0.3672982691, 0.011964113, -9.8847501606, 0.298110636339, 0.56253035666, -9.82419149901, 0.22073788485, 0.4175475437, -10.025926694
3.05423903465, 0.129282854697, -0.236036497203, -9.87076114004, 0.36789647475, 0.06640082715, -9.88415195495, 0.296538564805, 0.566235567344, -9.82615066371, 0.203389921, 0.4725824635, -10.073783146
3.06444501877, 0.129282854697, -0.236036497203, -9.87076114004, 0.36789647475, 0.06640082715, -9.88415195495, 0.296538564805, 0.566235567344, -9.82615066371, 0.203389921, 0.4725824635, -10.073783146
3.074655056, 0.129185293312, -0.233527561153, -9.87012075984, 0.36430724085, 0.0490528633, -9.882357338, 0.2960210089, 0.566579228709, -9.8281531942, 0.21236300575, 0.442672181, -10.0761759686
3.08481907845, 0.129185293312, -0.233527561153, -9.87012075984, 0.36430724085, 0.0490528633, -9.882357338, 0.2960210089, 0.566579228709, -9.8281531942, 0.21236300575, 0.442672181, -10.0761759686
3.09497499466, 0.128918026371, -0.233602520743, -9.87115957291, 0.3625126239, 0.02572284295, -9.89850889055, 0.296392696495, 0.555044052068, -9.82528946757, 0.22073788485, 0.3242274623, -10.0295159279
3.10524392128, 0.128918026371, -0.233602520743, -9.87115957291, 0.3625126239, 0.02572284295, -9.89850889055, 0.296392696495, 0.555044052068, -9.82528946757, 0.22073788485, 0.3242274623, -10.0295159279
3.11556005478, 0.128258742169, -0.234567292848, -9.87281235145, 0.35832518435, 0.0167497582, -9.90568735835, 0.296547753635, 0.544243649137, -9.82486565394, 0.2189432679, 0.32004002275, -10.0510513313
3.12570095062, 0.128258742169, -0.234567292848, -9.87281235145, 0.35832518435, 0.0167497582, -9.90568735835, 0.296547753635, 0.544243649137, -9.82486565394, 0.2189432679, 0.32004002275, -10.0510513313
3.13584208488, 0.127665386387, -0.235734690569, -9.8733427231, 0.35832518435, 0.01375872995, -9.89611606795, 0.296687305062, 0.543795474073, -9.82765471162, 0.2189432679, 0.4127618985, -10.0827562307
3.14609909058, 0.127665386387, -0.235734690569, -9.8733427231, 0.35832518435, 0.01375872995, -9.89611606795, 0.296687305062, 0.543795474073, -9.82765471162, 0.2189432679, 0.4127618985, -10.0827562307
3.15645694733, 0.127849212963, -0.238041580382, -9.87310221081, 0.36550365215, 0.0011964113, -9.88893760015, 0.297889671515, 0.550211660926, -9.82807114376, 0.2297109696, 0.4809573426, -10.061819033
3.16667103767, 0.127849212963, -0.238041580382, -9.87310221081, 0.36550365215, 0.0011964113, -9.88893760015, 0.297889671515, 0.550211660926, -9.82807114376, 0.2297109696, 0.4809573426, -10.061819033
3.17687702179, 0.126937886712, -0.235272315449, -9.87109113279, 0.35473595045, 0.04965106895, -9.87099143065, 0.297954851719, 0.563164696893, -9.82904413834, 0.21954147355, 0.5527420206, -10.0678010895
3.18708491325, 0.126937886712, -0.235272315449, -9.87109113279, 0.35473595045, 0.04965106895, -9.87099143065, 0.297954851719, 0.563164696893, -9.82904413834, 0.21954147355, 0.5527420206, -10.0678010895
3.19730710983, 0.124502537831, -0.239180777464, -9.8709561384, 0.3385843979, -0.0143569356, -9.88774118885, 0.299808130852, 0.564294009824, -9.83111624475, 0.23748764305, 0.4474578262, -10.0797652025
3.20749497414, 0.124502537831, -0.239180777464, -9.8709561384, 0.3385843979, -0.0143569356, -9.88774118885, 0.299808130852, 0.564294009824, -9.83111624475, 0.23748764305, 0.4474578262, -10.0797652025
3.21765208244, 0.125421393218, -0.240305570677, -9.87029625836, 0.3696910917, 0.0095712904, -9.882357338, 0.300638594162, 0.562678286601, -9.83118652358, 0.22911276395, 0.4211367776, -10.061819033
3.22789907455, 0.125421393218, -0.240305570677, -9.87029625836, 0.3696910917, 0.0095712904, -9.882357338, 0.300638594162, 0.562678286601, -9.83118652358, 0.22911276395, 0.4211367776, -10.061819033
3.23810696602, 0.126248363066, -0.240540217225, -9.87036039254, 0.3696910917, 0.01734796385, -9.88893760015, 0.296720007071, 0.562420547001, -9.82712215553, 0.18245272325, 0.4331008906, -10.0205428432
3.24825406075, 0.126248363066, -0.240540217225, -9.87036039254, 0.3696910917, 0.01734796385, -9.88893760015, 0.296720007071, 0.562420547001, -9.82712215553, 0.18245272325, 0.4331008906, -10.0205428432
3.2584939003, 0.127112277059, -0.237221985782, -9.87029847217, 0.370887503, 0.0526420972, -9.88774118885, 0.296483409764, 0.564342121701, -9.82819004893, 0.215354034, 0.454636294, -10.0678010895
3.26883792877, 0.127112277059, -0.237221985782, -9.87029847217, 0.370887503, 0.0526420972, -9.88774118885, 0.296483409764, 0.564342121701, -9.82819004893, 0.215354034, 0.454636294, -10.0678010895
3.27898406982, 0.127590696828, -0.237346246864, -9.87054184666, 0.36789647475, 0.0215354034, -9.8907322171, 0.296629395577, 0.552432450111, -9.82897169129, 0.2189432679, 0.3182454058, -10.0660064725
3.28913807869, 0.127590696828, -0.237346246864, -9.87054184666, 0.36789647475, 0.0215354034, -9.8907322171, 0.296629395577, 0.552432450111, -9.82897169129, 0.2189432679, 0.3182454058, -10.0660064725
3.29932498932, 0.12921768592, -0.240389289523, -9.87082070427, 0.37986058775, -0.00777667345, -9.89133042275, 0.297538450154, 0.554934090545, -9.83164924806, 0.22671994135, 0.45044885445, -10.085747259
3.30945301056, 0.12921768592, -0.240389289523, -9.87082070427, 0.37986058775, -0.00777667345, -9.89133042275, 0.297538450154, 0.554934090545, -9.83164924806, 0.22671994135, 0.45044885445, -10.085747259
3.31960892677, 0.129485564803, -0.242170898875, -9.8704136499, 0.36789647475, 0.00179461695, -9.8847501606, 0.297818214189, 0.55018656083, -9.82951268622, 0.2213360905, 0.3804587934, -10.0402836296
3.32980489731, 0.129485564803, -0.242170898875, -9.8704136499, 0.36789647475, 0.00179461695, -9.8847501606, 0.297818214189, 0.55018656083, -9.82951268622, 0.2213360905, 0.3804587934, -10.0402836296
3.34008407593, 0.128290962238, -0.245628784808, -9.86998748041, 0.35353953915, -0.0167497582, -9.88415195495, 0.29890748973, 0.551177993807, -9.82884601242, 0.2297109696, 0.4331008906, -10.0528459482
3.35025596619, 0.128290962238, -0.245628784808, -9.86998748041, 0.35353953915, -0.0167497582, -9.88415195495, 0.29890748973, 0.551177993807, -9.82884601242, 0.2297109696, 0.4331008906, -10.0528459482
3.36424803734, 0.126258690889, -0.246886444632, -9.8693646456, 0.34396824875, 0.00179461695, -9.88175913235, 0.298691426417, 0.556138081907, -9.82848528826, 0.2177468566, 0.4737788748, -10.0552387708
3.37445497513, 0.126258690889, -0.246886444632, -9.8693646456, 0.34396824875, 0.00179461695, -9.88175913235, 0.298691426417, 0.556138081907, -9.82848528826, 0.2177468566, 0.4737788748, -10.0552387708
3.38466191292, 0.125267134585, -0.246044259829, -9.86922283823, 0.35234312785, 0.0215354034, -9.8859465719, 0.29676217305, 0.560063776111, -9.82851955991, 0.20039889275, 0.46839502395, -10.0588280047
3.39482998848, 0.125267134585, -0.246044259829, -9.86922283823, 0.35234312785, 0.0215354034, -9.8859465719, 0.29676217305, 0.560063776111, -9.82851955991, 0.20039889275, 0.46839502395, -10.0588280047
3.40527391434, 0.125152401257, -0.243790779381, -9.86945413499, 0.35234312785, 0.0215354034, -9.8859465719, 0.2957436918, 0.559648743605, -9.82962717457, 0.20039889275, 0.46839502395, -10.0588280047
3.41597294807, 0.125152401257, -0.243790779381, -9.86945413499, 0.3601198013, 0.03649054465, -9.8895358058, 0.2957436918, 0.559648743605, -9.82962717457, 0.20757736055, 0.42891345105, -10.0695957064
3.42614793777, 0.123912550526, -0.247325959523, -9.87211494524, 0.34875389395, -0.0191425808, -9.91406223745, 0.295185982065, 0.562026960339, -9.83128205397, 0.21116659445, 0.45643091095, -10.0761759686
3.43631911278, 0.123912550526, -0.247325959523, -9.87211494524, 0.34875389395, -0.0191425808, -9.91406223745, 0.295185982065, 0.562026960339, -9.83128205397, 0.21116659445, 0.45643091095, -10.0761759686
3.44653606415, 0.124352019559, -0.262112811261, -9.87391146881, 0.36430724085, -0.1351944769, -9.90808018095, 0.295760813474, 0.562671841275, -9.83289108656, 0.22193429615, 0.4414757697, -10.0773723799
3.45687007904, 0.124352019559, -0.262112811261, -9.87391146881, 0.36430724085, -0.1351944769, -9.90808018095, 0.295760813474, 0.562671841275, -9.83289108656, 0.22193429615, 0.4414757697, -10.0773723799
3.4670290947, 0.125943952988, -0.263576505954, -9.87439174929, 0.37627135385, -0.0167497582, -9.8967142736, 0.294004980271, 0.561517437733, -9.8331428046, 0.19920248145, 0.42412780585, -10.0654082669
3.4771900177, 0.125943952988, -0.263576505954, -9.87439174929, 0.37627135385, -0.0167497582, -9.8967142736, 0.294004980271, 0.561517437733, -9.8331428046, 0.19920248145, 0.42412780585, -10.0654082669
3.48746800423, 0.125943952988, -0.263576505954, -9.87439174929, 0.37627135385, -0.0167497582, -9.8967142736, 0.294004980271, 0.561517437733, -9.8331428046, 0.19920248145, 0.42412780585, -10.0654082669
3.49768900871, 0.125881178949, -0.261065315019, -9.87608023358, 0.3613162126, 0.0215354034, -9.90927659225, 0.294398809034, 0.560717756805, -9.8332497097, 0.2189432679, 0.42652062845, -10.0642118556
3.50786590576, 0.127080914179, -0.257668652442, -9.87526686741, 0.37387853125, 0.03290131075, -9.8859465719, 0.293317561361, 0.562091763744, -9.83310664203, 0.2045863323, 0.4474578262, -10.061819033
3.51804208755, 0.127080914179, -0.257668652442, -9.87526686741, 0.37387853125, 0.03290131075, -9.8859465719, 0.293317561361, 0.562091763744, -9.83310664203, 0.2045863323, 0.4474578262, -10.061819033
3.52838993073, 0.127080914179, -0.257668652442, -9.87526686741, 0.37387853125, 0.03290131075, -9.8859465719, 0.292942644105, 0.56308908773, -9.83202075208, 0.2045863323, 0.4474578262, -10.061819033
3.53914999962, 0.128041034756, -0.271780158278, -9.87405627334, 0.37268211995, -0.1387837108, -9.8811609267, 0.292942644105, 0.56308908773, -9.83202075208, 0.2105683888, 0.4450650036, -10.0522477426
3.54929590225, 0.128041034756, -0.271780158278, -9.87405627334, 0.37268211995, -0.1387837108, -9.8811609267, 0.292942644105, 0.56308908773, -9.83202075208, 0.2105683888, 0.4450650036, -10.0522477426
3.55947399139, 0.128366758191, -0.2676111142, -9.87200960964, 0.3672982691, 0.0299102825, -9.8715896363, 0.292485577444, 0.563986679317, -9.83271842696, 0.2093719775, 0.4450650036, -10.0689975008
3.56965613365, 0.128366758191, -0.2676111142, -9.87200960964, 0.3672982691, 0.0299102825, -9.8715896363, 0.292485577444, 0.563986679317, -9.83271842696, 0.2093719775, 0.4450650036, -10.0689975008
3.57981491089, 0.129317935496, -0.262842024925, -9.87124438247, 0.37387853125, 0.04007977855, -9.882357338, 0.291894755755, 0.56174366293, -9.83209010248, 0.20757736055, 0.41455651545, -10.0564351822
3.59017896652, 0.129755251117, -0.264472080513, -9.87127352481, 0.3696910917, -0.0191425808, -9.8895358058, 0.291894755755, 0.56174366293, -9.83209010248, 0.20757736055, 0.41455651545, -10.0564351822
3.60037708282, 0.129755251117, -0.264472080513, -9.87127352481, 0.3696910917, -0.0191425808, -9.8895358058, 0.290585348889, 0.562596335302, -9.83188353383, 0.1998006871, 0.44327038665, -10.060024416
3.61059212685, 0.129755251117, -0.264472080513, -9.87127352481, 0.3696910917, -0.0191425808, -9.8895358058, 0.290585348889, 0.562596335302, -9.83188353383, 0.1998006871, 0.44327038665, -10.060024416
3.6208190918, 0.12996937348, -0.260495459126, -9.87363275494, 0.36789647475, 0.03529413335, -9.91286582615, 0.29299611661, 0.558757556932, -9.83014228736, 0.2356930261, 0.3972085516, -10.0444710691
3.63099193573, 0.128427287222, -0.261522683384, -9.87085077573, 0.3505485109, -0.0107677017, -9.86381296285, 0.294388140214, 0.556259785439, -9.83072870588, 0.22791635265, 0.406779842, -10.0660064725
3.64125108719, 0.128427287222, -0.261522683384, -9.87085077573, 0.3505485109, -0.0107677017, -9.86381296285, 0.294388140214, 0.556259785439, -9.83072870588, 0.22791635265, 0.406779842, -10.0660064725
3.65172696114, 0.129013488235, -0.25784100171, -9.87091927874, 0.37028929735, 0.03529413335, -9.8895358058, 0.294863294113, 0.554370714485, -9.83119666198, 0.2201396792, 0.4103690759, -10.0654082669
3.6618680954, 0.129013488235, -0.25784100171, -9.87091927874, 0.37028929735, 0.03529413335, -9.8895358058, 0.294863294113, 0.554370714485, -9.83119666198, 0.2201396792, 0.4103690759, -10.0654082669
3.67206406593, 0.129013488235, -0.25784100171, -9.87091927874, 0.37028929735, 0.03529413335, -9.8895358058, 0.294863294113, 0.554370714485, -9.83119666198, 0.2201396792, 0.4103690759, -10.0654082669
3.68231797218, 0.127387528806, -0.255544437809, -9.87199788105, 0.34875389395, 0.0251246373, -9.89970530185, 0.293675777367, 0.556678528481, -9.82928482044, 0.20398812665, 0.45044885445, -10.0420782466
3.69260191917, 0.127718782271, -0.255032864988, -9.87237041748, 0.36670006345, 0.0095712904, -9.89372324535, 0.293923064725, 0.558516278818, -9.83121321752, 0.21714865095, 0.44805603185, -10.0785687912
3.70277190208, 0.127718782271, -0.255032864988, -9.87237041748, 0.36670006345, 0.0095712904, -9.89372324535, 0.293923064725, 0.558516278818, -9.83121321752, 0.21714865095, 0.44805603185, -10.0785687912
3.7129740715, 0.127718782271, -0.255032864988, -9.87237041748, 0.36670006345, 0.0095712904, -9.89372324535, 0.293923064725, 0.558516278818, -9.83121321752, 0.21714865095, 0.44805603185, -10.0785687912
3.7232170105, 0.128316013214, -0.254392987755, -9.87348336761, 0.3696910917, 0.01136590735, -9.9014999188, 0.294205443912, 0.558854201691, -9.82846223251, 0.2177468566, 0.43489550755, -10.0337033674
3.73341798782, 0.126819621852, -0.269370445144, -9.87358771426, 0.3493520996, -0.14416756165, -9.89252683405, 0.296314022696, 0.559876179057, -9.82915683595, 0.23629123175, 0.44207397535, -10.0654082669
3.74356102943, 0.126819621852, -0.269370445144, -9.87358771426, 0.3493520996, -0.14416756165, -9.89252683405, 0.296314022696, 0.559876179057, -9.82915683595, 0.23629123175, 0.44207397535, -10.0654082669
3.75377893448, 0.127506768837, -0.27393689261, -9.87457893471, 0.3696910917, -0.0550349198, -9.9014999188, 0.294143945182, 0.560736138122, -9.82876502944, 0.19561324755, 0.4414757697, -10.0552387708
3.76399993896, 0.127506768837, -0.27393689261, -9.87457893471, 0.3696910917, -0.0550349198, -9.9014999188, 0.294143945182, 0.560736138122, -9.82876502944, 0.19561324755, 0.4414757697, -10.0552387708
3.77417802811, 0.125433275698, -0.276132437249, -9.87582995651, 0.34277183745, -0.035892339, -9.9050891527, 0.293267645588, 0.563125256534, -9.82601958098, 0.20638094925, 0.45762732225, -10.0313105448
3.78439593315, 0.125433275698, -0.276132437249, -9.87582995651, 0.34277183745, -0.035892339, -9.9050891527, 0.293267645588, 0.563125256534, -9.82601958098, 0.20638094925, 0.45762732225, -10.0313105448
3.79461097717, 0.126378698429, -0.273083499964, -9.8778531846, 0.370887503, 0.0143569356, -9.91406223745, 0.293316463865, 0.561028202991, -9.82372813906, 0.21475582835, 0.4151547211, -10.0331051618
3.80495095253, 0.126378698429, -0.273083499964, -9.8778531846, 0.370887503, 0.0143569356, -9.91406223745, 0.293316463865, 0.561028202991, -9.82372813906, 0.21475582835, 0.4151547211, -10.0331051618
3.8151640892, 0.127528681711, -0.264955605557, -9.87835803746, 0.37387853125, 0.0681954441, -9.90090171315, 0.294855914438, 0.563926500002, -9.82728897445, 0.2297109696, 0.4630111731, -10.0893364929
3.82540297508, 0.127528681711, -0.264955605557, -9.87835803746, 0.37387853125, 0.0681954441, -9.90090171315, 0.294855914438, 0.563926500002, -9.82728897445, 0.2297109696, 0.4630111731, -10.0893364929
3.83582305908, 0.126888690845, -0.261947581272, -9.87827401994, 0.35712877305, 0.0251246373, -9.8955178623, 0.294028059049, 0.563065374542, -9.82744287748, 0.20757736055, 0.4283152454, -10.0588280047
3.84596800804, 0.126888690845, -0.261947581272, -9.87827401994, 0.35712877305, 0.0251246373, -9.8955178623, 0.294028059049, 0.563065374542, -9.82744287748, 0.20757736055, 0.4283152454, -10.0588280047
3.85612607002, 0.127987674885, -0.254335073085, -9.87760019853, 0.37387853125, 0.0741775006, -9.8895358058, 0.293522271459, 0.565700133832, -9.82770103133, 0.20997018315, 0.46241296745, -10.060024416
3.86635398865, 0.127987674885, -0.254335073085, -9.87760019853, 0.37387853125, 0.0741775006, -9.8895358058, 0.293522271459, 0.565700133832, -9.82770103133, 0.20997018315, 0.46241296745, -10.060024416
3.87666106224, 0.129096401652, -0.255439950861, -9.87579734796, 0.37507494255, -0.00538385085, -9.8775716928, 0.294622397318, 0.570404419229, -9.82613875286, 0.22552353005, 0.4857429878, -10.0420782466
3.88682889938, 0.129096401652, -0.255439950861, -9.87579734796, 0.37507494255, -0.00538385085, -9.8775716928, 0.294622397318, 0.570404419229, -9.82613875286, 0.22552353005, 0.4857429878, -10.0420782466
3.8969669342, 0.130752281956, -0.248119282325, -9.87608904052, 0.3816552047, 0.0777667345, -9.8967142736, 0.295373228332, 0.569852630886, -9.8266469603, 0.22313070745, 0.4378865358, -10.0612208274
3.90716600418, 0.130752281956, -0.248119282325, -9.87608904052, 0.3816552047, 0.0777667345, -9.8967142736, 0.295373228332, 0.569852630886, -9.8266469603, 0.22313070745, 0.4378865358, -10.0612208274
3.9173719883, 0.126499799991, -0.251161791607, -9.87353999727, 0.3242274623, -0.01854437515, -9.86859860805, 0.293835615338, 0.568638174598, -9.82752309096, 0.2009970984, 0.430708068, -10.0654082669
3.92751002312, 0.126499799991, -0.251161791607, -9.87353999727, 0.3242274623, -0.01854437515, -9.86859860805, 0.293835615338, 0.568638174598, -9.82752309096, 0.2009970984, 0.430708068, -10.0654082669
3.93768405914, 0.125663594472, -0.247738531767, -9.8708271144, 0.3541377448, 0.0430708068, -9.8644111685, 0.293408892685, 0.567006778853, -9.83118299568, 0.2105683888, 0.42532421715, -10.0941221381
3.94792604446, 0.125663594472, -0.247738531767, -9.8708271144, 0.3541377448, 0.0430708068, -9.8644111685, 0.293408892685, 0.567006778853, -9.83118299568, 0.2105683888, 0.42532421715, -10.0941221381
3.95820212364, 0.125987779675, -0.246033470905, -9.87329080614, 0.3649054465, 0.02931207685, -9.9134640318, 0.293981971336, 0.565059958163, -9.82981090585, 0.2201396792, 0.42053857195, -10.0474620974
3.96839189529, 0.125987779675, -0.246033470905, -9.87329080614, 0.3649054465, 0.02931207685, -9.9134640318, 0.293981971336, 0.565059958163, -9.82981090585, 0.2201396792, 0.42053857195, -10.0474620974
3.97863101959, 0.124724211667, -0.24366142822, -9.87389297345, 0.3493520996, 0.03768695595, -9.89731247925, 0.294677203818, 0.564922974796, -9.82797781936, 0.22193429615, 0.4366901245, -10.0414800409
3.98885703087, 0.124724211667, -0.24366142822, -9.87389297345, 0.3493520996, 0.03768695595, -9.89731247925, 0.294677203818, 0.564922974796, -9.82797781936, 0.22193429615, 0.4366901245, -10.0414800409
3.99911594391, 0.124962873455, -0.243799771273, -9.87359743612, 0.36311082955, 0.01495514125, -9.88893760015, 0.294285963446, 0.566893409542, -9.82674678546, 0.2117648001, 0.45762732225, -10.0456674804
4.00931811333, 0.124962873455, -0.243799771273, -9.87359743612, 0.36311082955, 0.01495514125, -9.88893760015, 0.294285963446, 0.566893409542, -9.82674678546, 0.2117648001, 0.45762732225, -10.0456674804
4.01951694489, 0.125656233585, -0.242668048155, -9.87237432348, 0.36789647475, 0.0275174599, -9.87936630975, 0.294173129371, 0.566094516518, -9.82701472796, 0.2141576227, 0.4319044793, -10.0594262104
4.03015995026, 0.125656233585, -0.242668048155, -9.87237432348, 0.36789647475, 0.0275174599, -9.87936630975, 0.294173129371, 0.566094516518, -9.82701472796, 0.2141576227, 0.4319044793, -10.0594262104
4.04035997391, 0.123588332276, -0.241948600175, -9.87396544753, 0.3409772205, 0.02452643165, -9.906285564, 0.295507272264, 0.563820178106, -9.8286317492, 0.2285145583, 0.4163511324, -10.0731849404
4.05052709579, 0.123588332276, -0.241948600175, -9.87396544753, 0.3409772205, 0.02452643165, -9.906285564, 0.295507272264, 0.563820178106, -9.8286317492, 0.2285145583, 0.4163511324, -10.0731849404
4.06072902679, 0.123222735224, -0.239685941737, -9.87013324946, 0.35593236175, 0.0406779842, -9.8536434668, 0.296708000868, 0.561175067885, -9.82859155419, 0.2285145583, 0.4103690759, -10.0582297991
4.07095313072, 0.123222735224, -0.239685941737, -9.87013324946, 0.35593236175, 0.0406779842, -9.8536434668, 0.296708000868, 0.561175067885, -9.82859155419, 0.2285145583, 0.4103690759, -10.0582297991
4.08117389679, 0.123910647481, -0.239743268919, -9.86877799097, 0.3661018578, 0.01974078645, -9.87458066455, 0.296592245311, 0.562084599762, -9.82945268715, 0.2165504453, 0.44327038665, -10.0672028838
4.09134602547, 0.123910647481, -0.239743268919, -9.86877799097, 0.3661018578, 0.01974078645, -9.87458066455, 0.296592245311, 0.562084599762, -9.82945268715, 0.2165504453, 0.44327038665, -10.0672028838
4.1015689373, 0.125068153598, -0.238239528692, -9.86654130872, 0.37148570865, 0.03529413335, -9.8644111685, 0.29636842418, 0.565535283311, -9.82759560196, 0.215354034, 0.46959143525, -10.0408818352
4.1117579937, 0.125068153598, -0.238239528692, -9.86654130872, 0.37148570865, 0.03529413335, -9.8644111685, 0.29636842418, 0.565535283311, -9.82759560196, 0.215354034, 0.46959143525, -10.0408818352
4.12193107605, 0.126169729668, -0.237304906443, -9.86919429877, 0.3720839143, 0.0311066938, -9.9110712092, 0.296346446857, 0.567205204944, -9.82640278981, 0.21714865095, 0.45523449965, -10.0456674804
4.1320939064, 0.126169729668, -0.237304906443, -9.86919429877, 0.3720839143, 0.0311066938, -9.9110712092, 0.296346446857, 0.567205204944, -9.82640278981, 0.21714865095, 0.45523449965, -10.0456674804
4.14225697517, 0.125426351747, -0.236104823028, -9.86912934665, 0.35473595045, 0.0346959277, -9.88654477755, 0.295907923311, 0.57008400741, -9.82622656735, 0.2129612114, 0.4689932296, -10.0546405652
4.15240597725, 0.125426351747, -0.236104823028, -9.86912934665, 0.35473595045, 0.0346959277, -9.88654477755, 0.295907923311, 0.57008400741, -9.82622656735, 0.2129612114, 0.4689932296, -10.0546405652
4.16286993027, 0.126252825742, -0.23771667338, -9.86972891595, 0.3696910917, 0.00777667345, -9.8931250397, 0.295214149295, 0.564300050529, -9.83085361234, 0.20997018315, 0.3852444386, -10.1024970172
4.17335391045, 0.126252825742, -0.23771667338, -9.86972891595, 0.3696910917, 0.00777667345, -9.8931250397, 0.295214149295, 0.564300050529, -9.83085361234, 0.20997018315, 0.3852444386, -10.1024970172
4.18355607986, 0.126697549513, -0.241859264122, -9.86763642347, 0.36670006345, -0.0191425808, -9.8668039911, 0.295786163981, 0.564837263576, -9.82999302536, 0.22193429615, 0.442672181, -10.0522477426
4.19371700287, 0.126697549513, -0.241859264122, -9.86763642347, 0.36670006345, -0.0191425808, -9.8668039911, 0.295786163981, 0.564837263576, -9.82999302536, 0.22193429615, 0.442672181, -10.0522477426
4.20384693146, 0.127636185991, -0.24534831353, -9.86868438792, 0.3720839143, -0.0167497582, -9.89611606795, 0.296300977197, 0.563346676674, -9.82838100918, 0.22193429615, 0.42293139455, -10.0438728635
4.21404290199, 0.127636185991, -0.24534831353, -9.86868438792, 0.3720839143, -0.0167497582, -9.89611606795, 0.296300977197, 0.563346676674, -9.82838100918, 0.22193429615, 0.42293139455, -10.0438728635
4.22429203987, 0.127763112042, -0.247591149522, -9.86693563049, 0.3649054465, -0.00777667345, -9.8691968137, 0.294311665928, 0.565594382361, -9.82926319664, 0.1974078645, 0.45882373355, -10.0672028838
4.23451495171, 0.127763112042, -0.247591149522, -9.86693563049, 0.3649054465, -0.00777667345, -9.8691968137, 0.294311665928, 0.565594382361, -9.82926319664, 0.1974078645, 0.45882373355, -10.0672028838
4.24474096298, 0.126740754753, -0.25026772813, -9.86823313593, 0.35353953915, -0.0143569356, -9.8979106849, 0.296110519685, 0.565403956575, -9.8276045222, 0.2333002035, 0.4366901245, -10.0426764522
4.25499010086, 0.126740754753, -0.25026772813, -9.86823313593, 0.35353953915, -0.0143569356, -9.8979106849, 0.296110519685, 0.565403956575, -9.8276045222, 0.2333002035, 0.4366901245, -10.0426764522
4.26536607742, 0.128452738053, -0.247651721417, -9.87023837874, 0.37986058775, 0.035892339, -9.906285564, 0.292465278346, 0.563318315288, -9.82892328175, 0.1806581063, 0.4175475437, -10.0707921177
4.27556705475, 0.128452738053, -0.247651721417, -9.87023837874, 0.37986058775, 0.035892339, -9.906285564, 0.292465278346, 0.563318315288, -9.82892328175, 0.1806581063, 0.4175475437, -10.0707921177
4.28577399254, 0.127421238727, -0.245058033115, -9.87186363557, 0.3541377448, 0.0382851616, -9.90449094705, 0.293132718432, 0.562518008299, -9.82957178027, 0.2201396792, 0.4283152454, -10.0654082669
4.29596710205, 0.127421238727, -0.245058033115, -9.87186363557, 0.3541377448, 0.0382851616, -9.90449094705, 0.293132718432, 0.562518008299, -9.82957178027, 0.2201396792, 0.4283152454, -10.0654082669
4.30612397194, 0.12595450425, -0.241646943474, -9.87153174977, 0.34875389395, 0.0490528633, -9.88654477755, 0.292656644339, 0.559464729974, -9.83009560837, 0.2093719775, 0.40498522505, -10.0648100613
4.31635594368, 0.12595450425, -0.241646943474, -9.87153174977, 0.34875389395, 0.0490528633, -9.88654477755, 0.292656644339, 0.559464729974, -9.83009560837, 0.2093719775, 0.40498522505, -10.0648100613
4.32775712013, 0.124096058135, -0.240969785396, -9.87171161707, 0.3433700431, 0.0251246373, -9.89133042275, 0.291510330875, 0.561502424682, -9.82949028349, 0.2021935097, 0.45284167705, -10.0540423596
4.33793592453, 0.124096058135, -0.240969785396, -9.87171161707, 0.3433700431, 0.0251246373, -9.89133042275, 0.291510330875, 0.561502424682, -9.82949028349, 0.2021935097, 0.45284167705, -10.0540423596
4.34811091423, 0.124096058135, -0.240969785396, -9.87171161707, 0.3433700431, 0.0251246373, -9.89133042275, 0.291510330875, 0.561502424682, -9.82949028349, 0.2021935097, 0.45284167705, -10.0540423596
4.35830593109, 0.125235023186, -0.243171909682, -9.87241188272, 0.37148570865, -0.00299102825, -9.8967142736, 0.290478648757, 0.560225680538, -9.8285865677, 0.2021935097, 0.42173498325, -10.0504531256
4.36849212646, 0.125235023186, -0.243171909682, -9.87241188272, 0.37148570865, -0.00299102825, -9.8967142736, 0.290478648757, 0.560225680538, -9.8285865677, 0.2021935097, 0.42173498325, -10.0504531256
4.37868595123, 0.125123500998, -0.241744049334, -9.87154660768, 0.3601198013, 0.0311066938, -9.88175913235, 0.291165290107, 0.563084588665, -9.82992676384, 0.21834506225, 0.4618147618, -10.0719885291
4.38890099525, 0.125123500998, -0.241744049334, -9.87154660768, 0.3601198013, 0.0311066938, -9.88175913235, 0.291165290107, 0.563084588665, -9.82992676384, 0.21834506225, 0.4618147618, -10.0719885291
4.39914512634, 0.125860618938, -0.23854471694, -9.8689732432, 0.3684946804, 0.0502492746, -9.86381296285, 0.292620755231, 0.558778241003, -9.82868029719, 0.22671994135, 0.39302111205, -10.0474620974
4.40936994553, 0.125860618938, -0.23854471694, -9.8689732432, 0.3684946804, 0.0502492746, -9.86381296285, 0.292620755231, 0.558778241003, -9.82868029719, 0.22671994135, 0.39302111205, -10.0474620974
4.41968011856, 0.124908869829, -0.236203702871, -9.86964824342, 0.35234312785, 0.04486542375, -9.89372324535, 0.293452109323, 0.559628352743, -9.82719955382, 0.22193429615, 0.4402793584, -10.0438728635
4.42988109589, 0.124908869829, -0.236203702871, -9.86964824342, 0.35234312785, 0.04486542375, -9.89372324535, 0.293452109323, 0.559628352743, -9.82719955382, 0.22193429615, 0.4402793584, -10.0438728635
4.44011497498, 0.125906733146, -0.237506562414, -9.869238794, 0.370887503, 0.0107677017, -9.8835537493, 0.294559251396, 0.560632735568, -9.8267043727, 0.22552353005, 0.442672181, -10.0522477426
4.45031905174, 0.125906733146, -0.237506562414, -9.869238794, 0.370887503, 0.0107677017, -9.8835537493, 0.294559251396, 0.560632735568, -9.8267043727, 0.22552353005, 0.442672181, -10.0522477426
4.4605050087, 0.124172705272, -0.236166672273, -9.86839172501, 0.3445664544, 0.035892339, -9.8787681041, 0.294598550221, 0.554657315137, -9.82984794359, 0.21595223965, 0.37387853125, -10.0881400816
4.47074103355, 0.124172705272, -0.236166672273, -9.86839172501, 0.3445664544, 0.035892339, -9.8787681041, 0.294598550221, 0.554657315137, -9.82984794359, 0.21595223965, 0.37387853125, -10.0881400816
4.48094105721, 0.122851362444, -0.237592876005, -9.86936415931, 0.346959277, 0.0095712904, -9.89611606795, 0.294753560294, 0.558192700933, -9.82920756462, 0.21595223965, 0.37387853125, -10.0881400816
4.4913289547, 0.122851362444, -0.237592876005, -9.86936415931, 0.346959277, 0.0095712904, -9.89611606795, 0.294753560294, 0.558192700933, -9.82920756462, 0.21714865095, 0.4630111731, -10.0534441539
4.50149798393, 0.125071926105, -0.237680048065, -9.87137594091, 0.38105699905, 0.0215354034, -9.9074819753, 0.295850198399, 0.559639751765, -9.82857140298, 0.22671994135, 0.44566320925, -10.0528459482
4.51169800758, 0.125071926105, -0.237680048065, -9.87137594091, 0.38105699905, 0.0215354034, -9.9074819753, 0.295850198399, 0.559639751765, -9.82857140298, 0.22671994135, 0.44566320925, -10.0528459482
4.52185511589, 0.126831151139, -0.237758502918, -9.87163120966, 0.37866417645, 0.0215354034, -9.8919286284, 0.297794301735, 0.560942097513, -9.82895598655, 0.23629123175, 0.44566320925, -10.0624172386
4.53204107285, 0.126831151139, -0.237758502918, -9.87163120966, 0.37866417645, 0.0215354034, -9.8919286284, 0.297794301735, 0.560942097513, -9.82895598655, 0.23629123175, 0.44566320925, -10.0624172386
4.54220795631, 0.128653735931, -0.238188035677, -9.8719207721, 0.38105699905, 0.0179461695, -9.89252683405, 0.298766327391, 0.563729363942, -9.83049852306, 0.2285145583, 0.4618147618, -10.0743813517
4.55240511894, 0.128653735931, -0.238188035677, -9.8719207721, 0.38105699905, 0.0179461695, -9.89252683405, 0.298766327391, 0.563729363942, -9.83049852306, 0.2285145583, 0.4618147618, -10.0743813517
4.56259512901, 0.130294062242, -0.238574615159, -9.87218137829, 0.38105699905, 0.0179461695, -9.89252683405, 0.299641150482, 0.566237903728, -9.83188680592, 0.2285145583, 0.4618147618, -10.0743813517
4.57301807404, 0.130294062242, -0.238574615159, -9.87218137829, 0.38105699905, 0.0179461695, -9.89252683405, 0.299770465049, 0.567059895975, -9.8293675649, 0.2285145583, 0.4618147618, -10.0743813517
4.58322691917, 0.129915918408, -0.237845766523, -9.87439000251, 0.3625126239, 0.0287138712, -9.9122676205, 0.299770465049, 0.567059895975, -9.8293675649, 0.22193429615, 0.4474578262, -10.0366943957
4.59337210655, 0.129755050652, -0.240779036651, -9.87476260906, 0.36430724085, -0.0071784678, -9.89611606795, 0.298810077989, 0.564868481312, -9.8299716351, 0.21116659445, 0.41814574935, -10.0654082669
4.60355901718, 0.129755050652, -0.240779036651, -9.87476260906, 0.36430724085, -0.0071784678, -9.89611606795, 0.298810077989, 0.564868481312, -9.8299716351, 0.21116659445, 0.41814574935, -10.0654082669
4.61383199692, 0.130029013627, -0.240547592646, -9.8729444146, 0.3684946804, 0.0215354034, -9.87458066455, 0.300099269975, 0.567681853316, -9.83153224788, 0.23270199785, 0.46600220135, -10.0755777629
4.62411308289, 0.130029013627, -0.240547592646, -9.8729444146, 0.3684946804, 0.0215354034, -9.87458066455, 0.300099269975, 0.567681853316, -9.83153224788, 0.23270199785, 0.46600220135, -10.0755777629
4.63427495956, 0.130029013627, -0.240547592646, -9.8729444146, 0.3684946804, 0.0215354034, -9.87458066455, 0.300099269975, 0.567681853316, -9.83153224788, 0.23270199785, 0.46600220135, -10.0755777629
4.64454507828, 0.131471991604, -0.256670307286, -9.87274373316, 0.3804587934, -0.14177473905, -9.88893760015, 0.300003310898, 0.57942625513, -9.83180020866, 0.2201396792, 0.55812587145, -10.0642118556
4.65470004082, 0.130258208054, -0.253653324917, -9.87375953116, 0.3553341561, 0.0334995164, -9.90090171315, 0.299438383208, 0.578929412237, -9.83257975843, 0.215354034, 0.4474578262, -10.0695957064
4.66490101814, 0.130258208054, -0.253653324917, -9.87375953116, 0.3553341561, 0.0334995164, -9.90090171315, 0.299438383208, 0.578929412237, -9.83257975843, 0.215354034, 0.4474578262, -10.0695957064
4.67514204979, 0.129345264554, -0.250160373441, -9.87413536427, 0.35712877305, 0.04127618985, -9.8955178623, 0.301801335407, 0.579259920978, -9.83274296815, 0.2440679052, 0.45523449965, -10.0642118556
4.68545198441, 0.129345264554, -0.250160373441, -9.87413536427, 0.35712877305, 0.04127618985, -9.8955178623, 0.301801335407, 0.579259920978, -9.83274296815, 0.2440679052, 0.45523449965, -10.0642118556
4.69564509392, 0.130258411788, -0.245401561857, -9.87555038425, 0.3744767369, 0.0574277424, -9.906285564, 0.300099476226, 0.57602796551, -9.83247111294, 0.2057827436, 0.4199403663, -10.060024416
4.70586109161, 0.130258411788, -0.245401561857, -9.87555038425, 0.3744767369, 0.0574277424, -9.906285564, 0.300099476226, 0.57602796551, -9.83247111294, 0.2057827436, 0.4199403663, -10.060024416
4.71604704857, 0.131738270514, -0.243511454031, -9.87383287397, 0.38105699905, 0.0334995164, -9.8763752815, 0.300123137654, 0.576229874969, -9.8304318263, 0.2213360905, 0.4510470601, -10.0420782466
4.72621798515, 0.131738270514, -0.243511454031, -9.87383287397, 0.38105699905, 0.0334995164, -9.8763752815, 0.300123137654, 0.576229874969, -9.8304318263, 0.2213360905, 0.4510470601, -10.0420782466
4.736369133, 0.131155885288, -0.244741564673, -9.87599598975, 0.36191441825, 0.00418743955, -9.9134640318, 0.300802459153, 0.571207204327, -9.8296732385, 0.22791635265, 0.39900316855, -10.0528459482
4.74655890465, 0.131155885288, -0.244741564673, -9.87599598975, 0.36191441825, 0.00418743955, -9.9134640318, 0.300802459153, 0.571207204327, -9.8296732385, 0.22791635265, 0.39900316855, -10.0528459482
4.75675702095, 0.131155885288, -0.244741564673, -9.87599598975, 0.36191441825, 0.00418743955, -9.9134640318, 0.300802459153, 0.571207204327, -9.8296732385, 0.22791635265, 0.39900316855, -10.0528459482
4.76694297791, 0.131529047059, -0.259188650246, -9.87477230401, 0.370887503, -0.1292124204, -9.88175913235, 0.300097796073, 0.57195101047, -9.83036638247, 0.21475582835, 0.45164526575, -10.0666046782
4.77724504471, 0.131685430958, -0.262081351776, -9.87444865419, 0.370887503, -0.1292124204, -9.88175913235, 0.300241266646, 0.572381153738, -9.83051164752, 0.21475582835, 0.45164526575, -10.0666046782
4.7874610424, 0.131685430958, -0.262081351776, -9.87444865419, 0.36909288605, -0.02811566555, -9.8895358058, 0.300241266646, 0.572381153738, -9.83051164752, 0.2225325018, 0.44925244315, -10.061819033
4.79762601852, 0.130928867992, -0.258583085523, -9.87439665161, 0.3601198013, 0.03290131075, -9.8919286284, 0.300131107901, 0.571631691944, -9.82908705138, 0.2201396792, 0.4378865358, -10.0462656861
4.80780100822, 0.130928867992, -0.258583085523, -9.87439665161, 0.3601198013, 0.03290131075, -9.8919286284, 0.300131107901, 0.571631691944, -9.82908705138, 0.2201396792, 0.4378865358, -10.0462656861
4.81795096397, 0.129889037933, -0.257588186236, -9.8751873372, 0.3601198013, 0.03290131075, -9.8919286284, 0.300131107901, 0.571631691944, -9.82908705138, 0.2201396792, 0.4378865358, -10.0462656861
4.82826709747, 0.129889037933, -0.257588186236, -9.8751873372, 0.3565305674, 0.01136590735, -9.9003035075, 0.300091785596, 0.571734843674, -9.82888168502, 0.22073788485, 0.44566320925, -10.0570333878
4.83863091469, 0.13134601348, -0.260222190212, -9.87506146632, 0.3804587934, -0.023928226, -9.8919286284, 0.301133165691, 0.572425885882, -9.82785936739, 0.23150558655, 0.45164526575, -10.0486585087
4.84878110886, 0.13134601348, -0.260222190212, -9.87506146632, 0.3804587934, -0.023928226, -9.8919286284, 0.301133165691, 0.572425885882, -9.82785936739, 0.23150558655, 0.45164526575, -10.0486585087
4.85894989967, 0.130025186612, -0.256790198986, -9.87333302727, 0.3804587934, -0.023928226, -9.8919286284, 0.299498123482, 0.577594186809, -9.83088743881, 0.2057827436, 0.49710889515, -10.0881400816
4.86951804161, 0.130025186612, -0.256790198986, -9.87333302727, 0.3541377448, 0.03409772205, -9.87577707585, 0.299498123482, 0.577594186809, -9.83088743881, 0.2057827436, 0.49710889515, -10.0881400816
4.87969398499, 0.130025186612, -0.256790198986, -9.87333302727, 0.3541377448, 0.03409772205, -9.87577707585, 0.299498123482, 0.577594186809, -9.83088743881, 0.2057827436, 0.49710889515, -10.0881400816
4.88985991478, 0.129195365821, -0.259563822253, -9.87740056524, 0.3577269787, -0.02452643165, -9.93200840695, 0.300539049224, 0.572614546678, -9.83289485631, 0.2309073809, 0.4007977855, -10.0809616138
4.90009307861, 0.129195365821, -0.259563822253, -9.87740056524, 0.3577269787, -0.02452643165, -9.93200840695, 0.300539049224, 0.572614546678, -9.83289485631, 0.2309073809, 0.4007977855, -10.0809616138
4.91040992737, 0.129704758974, -0.258231567032, -9.87507929291, 0.37028929735, 0.01375872995, -9.87218784195, 0.298245571882, 0.572140848415, -9.83410332641, 0.1986042758, 0.44087756405, -10.0749795573
4.92056298256, 0.129804289421, -0.253921867954, -9.87328925064, 0.37028929735, 0.01375872995, -9.87218784195, 0.298245571882, 0.572140848415, -9.83410332641, 0.1986042758, 0.44087756405, -10.0749795573
4.93088793755, 0.129804289421, -0.253921867954, -9.87328925064, 0.36670006345, 0.04486542375, -9.8751788702, 0.300548343518, 0.560348612629, -9.83184099786, 0.24227328825, 0.32721849055, -10.0414800409
4.94112610817, 0.129804289421, -0.253921867954, -9.87328925064, 0.36670006345, 0.04486542375, -9.8751788702, 0.300548343518, 0.560348612629, -9.83184099786, 0.24227328825, 0.32721849055, -10.0414800409
4.95137095451, 0.129594763999, -0.250940447259, -9.8728746239, 0.3637090352, 0.035892339, -9.8871429832, 0.298852142397, 0.559426531951, -9.82926651708, 0.2045863323, 0.42412780585, -10.03609619
4.96157002449, 0.129594763999, -0.250940447259, -9.8728746239, 0.3637090352, 0.035892339, -9.8871429832, 0.298852142397, 0.559426531951, -9.82926651708, 0.2045863323, 0.42412780585, -10.03609619
4.97175192833, 0.129107088294, -0.248376809763, -9.87232199813, 0.36071800695, 0.0346959277, -9.88534836625, 0.297265740822, 0.560451096856, -9.82910302471, 0.20398812665, 0.442672181, -10.0576315934
4.98193693161, 0.129107088294, -0.248376809763, -9.87232199813, 0.36071800695, 0.0346959277, -9.88534836625, 0.297265740822, 0.560451096856, -9.82910302471, 0.20398812665, 0.442672181, -10.0576315934
4.99211502075, 0.128129795075, -0.250795360652, -9.87194427607, 0.3553341561, -0.01256231865, -9.88654477755, 0.296914749575, 0.56340710448, -9.82991301063, 0.21475582835, 0.4630111731, -10.0672028838
5.00230407715, 0.128129795075, -0.250795360652, -9.87194427607, 0.3553341561, -0.01256231865, -9.88654477755, 0.296914749575, 0.56340710448, -9.82991301063, 0.21475582835, 0.4630111731, -10.0672028838
5.01257395744, 0.127968077957, -0.249023899161, -9.87148468509, 0.3625126239, 0.02691925425, -9.88534836625, 0.295462266717, 0.565768408517, -9.83147948586, 0.203389921, 0.46002014485, -10.0755777629
5.02283000946, 0.127968077957, -0.249023899161, -9.87148468509, 0.3625126239, 0.02691925425, -9.88534836625, 0.295462266717, 0.565768408517, -9.83147948586, 0.203389921, 0.46002014485, -10.0755777629
5.03298211098, 0.128420738202, -0.246891198735, -9.87101123264, 0.3684946804, 0.0323031051, -9.8847501606, 0.295830007966, 0.566398068025, -9.83217146679, 0.2201396792, 0.4450650036, -10.0683992951
5.04317498207, 0.128420738202, -0.246891198735, -9.87101123264, 0.3684946804, 0.0323031051, -9.8847501606, 0.295830007966, 0.566398068025, -9.83217146679, 0.2201396792, 0.4450650036, -10.0683992951
5.05336689949, 0.130682569936, -0.246886026432, -9.87309758917, 0.38703905555, 0.0131605243, -9.9098747979, 0.295562769439, 0.568101352318, -9.83171747945, 0.2141576227, 0.45643091095, -10.0576315934
5.06367111206, 0.130682569936, -0.246886026432, -9.87309758917, 0.38703905555, 0.0131605243, -9.9098747979, 0.295562769439, 0.568101352318, -9.83171747945, 0.2141576227, 0.45643091095, -10.0576315934
5.07384991646, 0.131581627763, -0.246342986274, -9.8718048201, 0.3756731482, 0.01854437515, -9.87816989845, 0.29681776889, 0.569215564226, -9.83262494328, 0.22911276395, 0.4522434714, -10.0707921177
5.08403992653, 0.131581627763, -0.246342986274, -9.8718048201, 0.3756731482, 0.01854437515, -9.87816989845, 0.29681776889, 0.569215564226, -9.83262494328, 0.22911276395, 0.4522434714, -10.0707921177
5.09428501129, 0.129459572122, -0.246931020301, -9.87034222511, 0.34636107135, 0.00777667345, -9.8751788702, 0.296571395401, 0.569141584773, -9.83098901757, 0.215354034, 0.4414757697, -10.0462656861
5.10444402695, 0.129459572122, -0.246931020301, -9.87034222511, 0.34636107135, 0.00777667345, -9.8751788702, 0.296571395401, 0.569141584773, -9.83098901757, 0.215354034, 0.4414757697, -10.0462656861
5.11462807655, 0.128447030519, -0.249553970701, -9.87231602069, 0.3553341561, -0.0131605243, -9.90808018095, 0.297904993951, 0.570749979086, -9.83184968645, 0.2309073809, 0.4582255279, -10.0695957064
5.12482905388, 0.128447030519, -0.249553970701, -9.87231602069, 0.3553341561, -0.0131605243, -9.90808018095, 0.297904993951, 0.570749979086, -9.83184968645, 0.2309073809, 0.4582255279, -10.0695957064
5.13510107994, 0.130167847937, -0.246530775211, -9.86828984191, 0.3816552047, 0.0406779842, -9.8500542329, 0.298865950386, 0.571958251707, -9.83172697998, 0.2285145583, 0.4558327053, -10.0606226217
5.14551997185, 0.130167847937, -0.246530775211, -9.86828984191, 0.3816552047, 0.0406779842, -9.8500542329, 0.298865950386, 0.571958251707, -9.83172697998, 0.2285145583, 0.4558327053, -10.0606226217
5.15567398071, 0.128665734799, -0.241716179495, -9.8686144383, 0.35114671655, 0.06161518195, -9.8895358058, 0.298175476487, 0.571131438987, -9.83071923568, 0.2129612114, 0.4366901245, -10.0516495369
5.1658949852, 0.128665734799, -0.241716179495, -9.8686144383, 0.35114671655, 0.06161518195, -9.8895358058, 0.298175476487, 0.571131438987, -9.83071923568, 0.2129612114, 0.4366901245, -10.0516495369
5.17614197731, 0.129347732184, -0.249048053525, -9.8695047807, 0.37148570865, -0.0550349198, -9.8955178623, 0.297195126589, 0.572481027313, -9.82915423959, 0.2093719775, 0.45762732225, -10.0450692748
5.18629908562, 0.129347732184, -0.249048053525, -9.8695047807, 0.37148570865, -0.0550349198, -9.8955178623, 0.297195126589, 0.572481027313, -9.82915423959, 0.2093719775, 0.45762732225, -10.0450692748
5.19648003578, 0.12888475966, -0.247690605008, -9.86713559892, 0.36071800695, 0.02452643165, -9.86381296285, 0.297927966935, 0.573217092287, -9.82942071893, 0.22552353005, 0.45284167705, -10.061819033
5.20675706863, 0.12888475966, -0.247690605008, -9.86713559892, 0.36071800695, 0.02452643165, -9.86381296285, 0.297927966935, 0.573217092287, -9.82942071893, 0.22552353005, 0.45284167705, -10.061819033
5.21703600883, 0.127810058174, -0.247784953772, -9.86919077486, 0.3541377448, 0.01136590735, -9.90568735835, 0.298647343811, 0.573042062853, -9.83019893542, 0.2261217357, 0.44446679795, -10.0672028838
5.22718811035, 0.127810058174, -0.247784953772, -9.86919077486, 0.3541377448, 0.01136590735, -9.90568735835, 0.298647343811, 0.573042062853, -9.83019893542, 0.2261217357, 0.44446679795, -10.0672028838
5.2373650074, 0.126124980057, -0.24727166201, -9.86942527795, 0.346959277, 0.01734796385, -9.8895358058, 0.29869657735, 0.568756917378, -9.82934399557, 0.2201396792, 0.4031906081, -10.0516495369
5.24764800072, 0.126124980057, -0.24727166201, -9.86942527795, 0.346959277, 0.01734796385, -9.8895358058, 0.29869657735, 0.568756917378, -9.82934399557, 0.2201396792, 0.4031906081, -10.0516495369
5.25805401802, 0.125924462181, -0.248723957504, -9.86909794565, 0.3601198013, -0.00179461695, -9.88415195495, 0.299219452055, 0.569087726, -9.83084773118, 0.2249253244, 0.4450650036, -10.0743813517
5.26819705963, 0.125924462181, -0.248723957504, -9.86909794565, 0.3601198013, -0.00179461695, -9.88415195495, 0.299219452055, 0.569087726, -9.83084773118, 0.2249253244, 0.4450650036, -10.0743813517
5.27838492393, 0.125924462181, -0.248723957504, -9.86909794565, 0.3601198013, -0.00179461695, -9.88415195495, 0.299219452055, 0.569087726, -9.83084773118, 0.2249253244, 0.4450650036, -10.0743813517
5.28859901428, 0.127000227958, -0.252663128308, -9.86814532037, 0.37268211995, -0.02811566555, -9.8775716928, 0.29945075703, 0.569325633195, -9.82992791176, 0.2225325018, 0.44446679795, -10.0516495369
5.29879713058, 0.129763034107, -0.251781660223, -9.86800580439, 0.39062828945, 0.01615155255, -9.8847501606, 0.299898213767, 0.566189798031, -9.83245002592, 0.2249253244, 0.41096728155, -10.0851490533
5.30894398689, 0.129763034107, -0.251781660223, -9.86800580439, 0.39062828945, 0.01615155255, -9.8847501606, 0.299898213767, 0.566189798031, -9.83245002592, 0.2249253244, 0.41096728155, -10.0851490533
5.31913089752, 0.129677275347, -0.253022238155, -9.86776059888, 0.3649054465, -0.00418743955, -9.8835537493, 0.299283975225, 0.565521086722, -9.83334405567, 0.21475582835, 0.43250268495, -10.0713903234
5.3292889595, 0.129677275347, -0.253022238155, -9.86776059888, 0.3649054465, -0.00418743955, -9.8835537493, 0.299283975225, 0.565521086722, -9.83334405567, 0.21475582835, 0.43250268495, -10.0713903234
5.33998894691, 0.130736683197, -0.255454810725, -9.86742027279, 0.37627135385, -0.01734796385, -9.882357338, 0.300585598052, 0.563962117505, -9.83522545261, 0.2333002035, 0.42293139455, -10.0821580251
5.35035395622, 0.130736683197, -0.255454810725, -9.86742027279, 0.37627135385, -0.01734796385, -9.882357338, 0.300585598052, 0.563962117505, -9.83522545261, 0.2333002035, 0.42293139455, -10.0821580251
5.36053609848, 0.128758942577, -0.254952200612, -9.86615685027, 0.346959277, 0.0095712904, -9.8727860476, 0.302175802552, 0.5665072025, -9.83721781268, 0.23748764305, 0.46241296745, -10.0851490533
5.37067890167, 0.128758942577, -0.254952200612, -9.86615685027, 0.346959277, 0.0095712904, -9.8727860476, 0.302175802552, 0.5665072025, -9.83721781268, 0.23748764305, 0.46241296745, -10.0851490533
5.38102793694, 0.127756643365, -0.251867746651, -9.8651992317, 0.346959277, 0.0095712904, -9.8727860476, 0.301453446262, 0.55916666803, -9.8384127311, 0.23748764305, 0.46241296745, -10.0851490533
5.39142012596, 0.127756643365, -0.251867746651, -9.8651992317, 0.35473595045, 0.035892339, -9.87458066455, 0.301453446262, 0.55916666803, -9.8384127311, 0.21595223965, 0.3661018578, -10.0791669969
5.40162301064, 0.127756643365, -0.251867746651, -9.8651992317, 0.35473595045, 0.035892339, -9.87458066455, 0.301453446262, 0.55916666803, -9.8384127311, 0.21595223965, 0.3661018578, -10.0791669969
5.41181612015, 0.128050985373, -0.264345982161, -9.86367934877, 0.36670006345, -0.11665010175, -9.8680004024, 0.299008708651, 0.558123499552, -9.83548017982, 0.19800607015, 0.42173498325, -10.0390872183
5.42197203636, 0.128050985373, -0.264345982161, -9.86367934877, 0.36670006345, -0.11665010175, -9.8680004024, 0.299008708651, 0.558123499552, -9.83548017982, 0.19800607015, 0.42173498325, -10.0390872183
5.43218898773, 0.126700737926, -0.264629230725, -9.86494355899, 0.3505485109, -0.0071784678, -9.894321451, 0.299081626271, 0.558979264872, -9.83804527282, 0.22073788485, 0.43968115275, -10.0911311099
5.44242095947, 0.126700737926, -0.264629230725, -9.86494355899, 0.3505485109, -0.0071784678, -9.894321451, 0.299081626271, 0.558979264872, -9.83804527282, 0.22073788485, 0.43968115275, -10.0911311099
5.45262789726, 0.127818517258, -0.262072587877, -9.86560278368, 0.37387853125, 0.02093719775, -9.8895358058, 0.300283842864, 0.558792324619, -9.83754228997, 0.2321037922, 0.43010986235, -10.0630154443
5.4627699852, 0.127818517258, -0.262072587877, -9.86560278368, 0.37387853125, 0.02093719775, -9.8895358058, 0.300283842864, 0.558792324619, -9.83754228997, 0.2321037922, 0.43010986235, -10.0630154443
5.47304606438, 0.126910260577, -0.26114748231, -9.86745231775, 0.35473595045, 0.0071784678, -9.90209812445, 0.299571220847, 0.560299054212, -9.83750834936, 0.2141576227, 0.44685962055, -10.0672028838
5.48353099823, 0.126910260577, -0.26114748231, -9.86745231775, 0.35473595045, 0.0071784678, -9.90209812445, 0.299571220847, 0.560299054212, -9.83750834936, 0.2141576227, 0.44685962055, -10.0672028838
5.49374604225, 0.12818654934, -0.253256060629, -9.86720264034, 0.3756731482, 0.0777667345, -9.88295554365, 0.299288784423, 0.558305159206, -9.83239305478, 0.2177468566, 0.41336010415, -10.0163554036
5.50392198563, 0.12818654934, -0.253256060629, -9.86720264034, 0.3756731482, 0.0777667345, -9.88295554365, 0.299288784423, 0.558305159206, -9.83239305478, 0.2177468566, 0.41336010415, -10.0163554036
5.51414704323, 0.129395029791, -0.250939426316, -9.86721721293, 0.37627135385, 0.0299102825, -9.88534836625, 0.297299795255, 0.556091909746, -9.83036157396, 0.20039889275, 0.4091726646, -10.0420782466
5.52441692352, 0.129395029791, -0.250939426316, -9.86721721293, 0.37627135385, 0.0299102825, -9.88534836625, 0.297299795255, 0.556091909746, -9.83036157396, 0.20039889275, 0.4091726646, -10.0420782466
5.53482198715, 0.128867506942, -0.251247278034, -9.87004189482, 0.3601198013, 0.0059820565, -9.9134640318, 0.297065039695, 0.555475858226, -9.82901180574, 0.21595223965, 0.42293139455, -10.0468638917
5.54498791695, 0.128867506942, -0.251247278034, -9.87004189482, 0.3601198013, 0.0059820565, -9.9134640318, 0.297065039695, 0.555475858226, -9.82901180574, 0.21595223965, 0.42293139455, -10.0468638917
5.55516409874, 0.129349865417, -0.249251163111, -9.86959308027, 0.3696910917, 0.0287138712, -9.8835537493, 0.294999322175, 0.557792798978, -9.83198445389, 0.1974078645, 0.45164526575, -10.0887382872
5.56534099579, 0.129349865417, -0.249251163111, -9.86959308027, 0.3696910917, 0.0287138712, -9.8835537493, 0.294999322175, 0.557792798978, -9.83198445389, 0.1974078645, 0.45164526575, -10.0887382872
5.57549500465, 0.129903629176, -0.248471609285, -9.87020609678, 0.370887503, 0.01854437515, -9.89372324535, 0.293439279233, 0.557066479101, -9.83071167994, 0.20039889275, 0.4235296002, -10.0492567143
5.58568692207, 0.129903629176, -0.248471609285, -9.87020609678, 0.370887503, 0.01854437515, -9.89372324535, 0.293439279233, 0.557066479101, -9.83071167994, 0.20039889275, 0.4235296002, -10.0492567143
5.59585189819, 0.128846681868, -0.245975393891, -9.87051852937, 0.3553341561, 0.03649054465, -9.89133042275, 0.295684295049, 0.556771714601, -9.83100187694, 0.2368894374, 0.4271188341, -10.0636136499
5.60600090027, 0.128846681868, -0.245975393891, -9.87051852937, 0.3553341561, 0.03649054465, -9.89133042275, 0.295684295049, 0.556771714601, -9.83100187694, 0.2368894374, 0.4271188341, -10.0636136499
5.61620807648, 0.130587354716, -0.246241263767, -9.87163720662, 0.38225341035, 0.01136590735, -9.89970530185, 0.296269115725, 0.570444618195, -9.82958807842, 0.2225325018, 0.56650075055, -10.0468638917
5.62646198273, 0.130587354716, -0.246241263767, -9.87163720662, 0.38225341035, 0.01136590735, -9.89970530185, 0.296269115725, 0.570444618195, -9.82958807842, 0.2225325018, 0.56650075055, -10.0468638917
5.63664698601, 0.131256651805, -0.24390826236, -9.87222527219, 0.3732803256, 0.0370887503, -9.8955178623, 0.295718684162, 0.571444144646, -9.82586301659, 0.2117648001, 0.4534398827, -10.0223374601
5.64687490463, 0.131256651805, -0.24390826236, -9.87222527219, 0.3732803256, 0.0370887503, -9.8955178623, 0.295718684162, 0.571444144646, -9.82586301659, 0.2117648001, 0.4534398827, -10.0223374601
5.65717601776, 0.131256651805, -0.24390826236, -9.87222527219, 0.3732803256, 0.0370887503, -9.8955178623, 0.295718684162, 0.571444144646, -9.82586301659, 0.2117648001, 0.4534398827, -10.0223374601
5.66751194, 0.132337583704, -0.243962101434, -9.87125901708, 0.3780659708, 0.0155533469, -9.88056272105, 0.295163475191, 0.570908024891, -9.82681754162, 0.21116659445, 0.4390829471, -10.0654082669
5.67768311501, 0.130857779249, -0.244010556601, -9.87505539154, 0.35353953915, 0.0155533469, -9.92722276175, 0.294903069377, 0.568989823552, -9.82815517867, 0.21355941705, 0.4247260115, -10.0701939121
5.68787002563, 0.130857779249, -0.244010556601, -9.87505539154, 0.35353953915, 0.0155533469, -9.92722276175, 0.294903069377, 0.568989823552, -9.82815517867, 0.21355941705, 0.4247260115, -10.0701939121
5.69809508324, 0.131679495579, -0.241721164216, -9.87530163862, 0.37507494255, 0.03888336725, -9.8955178623, 0.295625833184, 0.564272414097, -9.82846174353, 0.22313070745, 0.394815729, -10.0612208274
5.70836591721, 0.131679495579, -0.241721164216, -9.87530163862, 0.37507494255, 0.03888336725, -9.8955178623, 0.295625833184, 0.564272414097, -9.82846174353, 0.22313070745, 0.394815729, -10.0612208274
5.71858692169, 0.128650344681, -0.240797301804, -9.87540361986, 0.3373879866, 0.0275174599, -9.894321451, 0.294601344791, 0.565051673047, -9.83107065395, 0.20638094925, 0.4450650036, -10.0845508477
5.72879099846, 0.128650344681, -0.240797301804, -9.87540361986, 0.3373879866, 0.0275174599, -9.894321451, 0.294601344791, 0.565051673047, -9.83107065395, 0.20638094925, 0.4450650036, -10.0845508477
5.73903989792, 0.127060699608, -0.238769414334, -9.87639271145, 0.34875389395, 0.0394815729, -9.90329453575, 0.294576613712, 0.565693185538, -9.83018836282, 0.215354034, 0.44446679795, -10.0522477426
5.74919199944, 0.127060699608, -0.238769414334, -9.87639271145, 0.34875389395, 0.0394815729, -9.90329453575, 0.294576613712, 0.565693185538, -9.83018836282, 0.215354034, 0.44446679795, -10.0522477426
5.75934004784, 0.128202303337, -0.23658539222, -9.87321509546, 0.3744767369, 0.0430708068, -9.86261655155, 0.29527220252, 0.565373238304, -9.83011214757, 0.2225325018, 0.4354937132, -10.0594262104
5.76955890656, 0.128202303337, -0.23658539222, -9.87321509546, 0.3744767369, 0.0430708068, -9.86261655155, 0.29527220252, 0.565373238304, -9.83011214757, 0.2225325018, 0.4354937132, -10.0594262104
5.77996492386, 0.128152976523, -0.241798240118, -9.87657657983, 0.3637090352, -0.0287138712, -9.92482993915, 0.293385768718, 0.567837031783, -9.83046229781, 0.1974078645, 0.4630111731, -10.0636136499
5.7901289463, 0.128152976523, -0.241798240118, -9.87657657983, 0.3637090352, -0.0287138712, -9.92482993915, 0.293385768718, 0.567837031783, -9.83046229781, 0.1974078645, 0.4630111731, -10.0636136499
5.80031895638, 0.127749659001, -0.240328285032, -9.87732873429, 0.3601198013, 0.03290131075, -9.90209812445, 0.293303133552, 0.568379470095, -9.82862389269, 0.21355941705, 0.4462614149, -10.0420782466
5.81052613258, 0.127749659001, -0.240328285032, -9.87732873429, 0.3601198013, 0.03290131075, -9.90209812445, 0.293303133552, 0.568379470095, -9.82862389269, 0.21355941705, 0.4462614149, -10.0420782466
5.82077407837, 0.127685776056, -0.240022275058, -9.87591195353, 0.36311082955, 0.0227318147, -9.8811609267, 0.294784096591, 0.568269458926, -9.8284648422, 0.22911276395, 0.4402793584, -10.0570333878
5.83097791672, 0.127685776056, -0.240022275058, -9.87591195353, 0.36311082955, 0.0227318147, -9.8811609267, 0.294784096591, 0.568269458926, -9.8284648422, 0.22911276395, 0.4402793584, -10.0570333878
5.84118008614, 0.127685776056, -0.240022275058, -9.87591195353, 0.36311082955, 0.0227318147, -9.8811609267, 0.294784096591, 0.568269458926, -9.8284648422, 0.22911276395, 0.4402793584, -10.0570333878
5.85148406029, 0.12720953745, -0.241780765293, -9.87720913514, 0.35892339, 0.0023928226, -9.90688376965, 0.297074092367, 0.582706846168, -9.8292788258, 0.23868405435, 0.58564333135, -10.0666046782
5.86183190346, 0.127139846095, -0.241628610118, -9.87472754413, 0.3625126239, 0.01974078645, -9.870393225, 0.297519933311, 0.581822123606, -9.83013105217, 0.2225325018, 0.44685962055, -10.0678010895
5.87201404572, 0.127139846095, -0.241628610118, -9.87472754413, 0.3625126239, 0.01974078645, -9.870393225, 0.297519933311, 0.581822123606, -9.83013105217, 0.2225325018, 0.44685962055, -10.0678010895
5.88224005699, 0.128512817436, -0.241192567636, -9.87381016464, 0.3768695595, 0.0227318147, -9.8835537493, 0.296664958294, 0.577197357141, -9.83119715873, 0.20997018315, 0.40857445895, -10.0707921177
5.89242100716, 0.128512817436, -0.241192567636, -9.87381016464, 0.3768695595, 0.0227318147, -9.8835537493, 0.296664958294, 0.577197357141, -9.83119715873, 0.20997018315, 0.40857445895, -10.0707921177
5.90260601044, 0.128512817436, -0.241192567636, -9.87381016464, 0.3768695595, 0.0227318147, -9.8835537493, 0.296664958294, 0.577197357141, -9.83119715873, 0.20997018315, 0.40857445895, -10.0707921177
5.91278409958, 0.126996745652, -0.238526947933, -9.87322380537, 0.3493520996, 0.0454636294, -9.8859465719, 0.296553506995, 0.579196585517, -9.83496822118, 0.2165504453, 0.4701896409, -10.0989077833
5.92292690277, 0.125273357657, -0.236905557545, -9.87281572315, 0.3457628657, 0.03768695595, -9.8871429832, 0.297111227041, 0.57854324789, -9.83303814711, 0.22313070745, 0.44566320925, -10.0456674804
5.93313908577, 0.125273357657, -0.236905557545, -9.87281572315, 0.3457628657, 0.03768695595, -9.8871429832, 0.297111227041, 0.57854324789, -9.83303814711, 0.22313070745, 0.44566320925, -10.0456674804
5.94330310822, 0.125277643151, -0.234130253765, -9.87053419108, 0.3613162126, 0.05084748025, -9.8680004024, 0.296177481521, 0.578852552501, -9.83303587683, 0.20877377185, 0.454636294, -10.0630154443
5.95357894897, 0.125277643151, -0.234130253765, -9.87053419108, 0.3613162126, 0.05084748025, -9.8680004024, 0.296177481521, 0.578852552501, -9.83303587683, 0.20877377185, 0.454636294, -10.0630154443
5.96384501457, 0.125277643151, -0.234130253765, -9.87053419108, 0.3613162126, 0.05084748025, -9.8680004024, 0.296177481521, 0.578852552501, -9.83303587683, 0.20877377185, 0.454636294, -10.0630154443
5.97423291206, 0.125460961791, -0.234444046919, -9.87278789289, 0.36311082955, 0.0227318147, -9.9110712092, 0.296533521854, 0.581703210946, -9.83369185979, 0.22073788485, 0.48035913695, -10.0695957064
5.98440599442, 0.127241103822, -0.236640718837, -9.87302160757, 0.3792623821, 0.0035892339, -9.8931250397, 0.296136111374, 0.579542978911, -9.8352393735, 0.21355941705, 0.4331008906, -10.0791669969
5.99458789825, 0.127241103822, -0.236640718837, -9.87302160757, 0.3792623821, 0.0035892339, -9.8931250397, 0.296136111374, 0.579542978911, -9.8352393735, 0.21355941705, 0.4331008906, -10.0791669969
6.00475597382, 0.12621112679, -0.236882927178, -9.87119805157, 0.3529413335, 0.02093719775, -9.8727860476, 0.298290905672, 0.579094284205, -9.83501698058, 0.23868405435, 0.44805603185, -10.0630154443
6.0149230957, 0.12621112679, -0.236882927178, -9.87119805157, 0.3529413335, 0.02093719775, -9.8727860476, 0.298290905672, 0.579094284205, -9.83501698058, 0.23868405435, 0.44805603185, -10.0630154443
6.02506899834, 0.12621112679, -0.236882927178, -9.87119805157, 0.3529413335, 0.02093719775, -9.8727860476, 0.298290905672, 0.579094284205, -9.83501698058, 0.23868405435, 0.44805603185, -10.0630154443
6.03521895409, 0.128215355146, -0.23548575943, -9.87218895604, 0.38225341035, 0.0370887503, -9.8991070962, 0.297657936244, 0.578391356145, -9.8376283935, 0.2129612114, 0.4450650036, -10.0911311099
6.04548597336, 0.128104902586, -0.236022925407, -9.87002992124, 0.36311082955, 0.0191425808, -9.86859860805, 0.29672934037, 0.57608374507, -9.83985902401, 0.2093719775, 0.4283152454, -10.0899346985
6.05582809448, 0.128104902586, -0.236022925407, -9.87002992124, 0.36311082955, 0.0191425808, -9.86859860805, 0.29672934037, 0.57608374507, -9.83985902401, 0.2093719775, 0.4283152454, -10.0899346985
6.06597089767, 0.128244777543, -0.237822427217, -9.87209476777, 0.36550365215, 0.0059820565, -9.9086783866, 0.297030194818, 0.576818461658, -9.83965323056, 0.22073788485, 0.45643091095, -10.0678010895
6.07612705231, 0.128244777543, -0.237822427217, -9.87209476777, 0.36550365215, 0.0059820565, -9.9086783866, 0.297030194818, 0.576818461658, -9.83965323056, 0.22073788485, 0.45643091095, -10.0678010895
6.08634710312, 0.128244777543, -0.237822427217, -9.87209476777, 0.36550365215, 0.0059820565, -9.9086783866, 0.297030194818, 0.576818461658, -9.83965323056, 0.22073788485, 0.45643091095, -10.0678010895
6.0964910984, 0.127114433138, -0.238604490935, -9.87006479293, 0.3529413335, 0.0143569356, -9.86979501935, 0.296523296476, 0.577360065457, -9.83982693984, 0.2129612114, 0.45523449965, -10.0713903234
6.10664606094, 0.12555873809, -0.237334269636, -9.87069045874, 0.34755748265, 0.03409772205, -9.894321451, 0.297323319834, 0.574258274977, -9.83944489311, 0.22552353005, 0.41934216065, -10.0660064725
6.11684894562, 0.12555873809, -0.237334269636, -9.87069045874, 0.34755748265, 0.03409772205, -9.894321451, 0.297323319834, 0.574258274977, -9.83944489311, 0.22552353005, 0.41934216065, -10.0660064725
6.12718009949, 0.124936279891, -0.241096356798, -9.8699973261, 0.3553341561, -0.01495514125, -9.88175913235, 0.296846929555, 0.570988099024, -9.84023764179, 0.21355941705, 0.41455651545, -10.0773723799
6.13735604286, 0.124936279891, -0.241096356798, -9.8699973261, 0.3553341561, -0.01495514125, -9.88175913235, 0.296846929555, 0.570988099024, -9.84023764179, 0.21355941705, 0.41455651545, -10.0773723799
6.14755511284, 0.124936279891, -0.241096356798, -9.8699973261, 0.3553341561, -0.01495514125, -9.88175913235, 0.296846929555, 0.570988099024, -9.84023764179, 0.21355941705, 0.41455651545, -10.0773723799
6.15781211853, 0.123837682427, -0.235150227103, -9.87074937972, 0.34995030525, 0.07836494015, -9.8955178623, 0.299169924295, 0.568882428577, -9.83891721639, 0.24107687695, 0.42293139455, -10.0570333878
6.16799998283, 0.122729303579, -0.232071891848, -9.87166551024, 0.34875389395, 0.05563312545, -9.8979106849, 0.29791066792, 0.570397097379, -9.83725026901, 0.20757736055, 0.4570291166, -10.0522477426
6.17816209793, 0.122729303579, -0.232071891848, -9.87166551024, 0.34875389395, 0.05563312545, -9.8979106849, 0.29791066792, 0.570397097379, -9.83725026901, 0.20757736055, 0.4570291166, -10.0522477426
