TIME, IMU1_acc_x, IMU1_acc_y, IMU1_acc_z, IMU1_acc_raw_x, IMU1_acc_raw_y, IMU1_acc_raw_z,IMU2_acc_x, IMU2_acc_y,IMU2_acc_z, IMU2_acc_raw_x, IMU2_acc_raw_y, IMU2_acc_raw_z1.90734863281e-06, 0.0, 0.0, 0.0, 0.0, 0.0, 0.0, 0.0, 0.0, 0.0, 0.0, 0.0, 0.0
0.0501821041107, 0.0, 0.0, 0.0, 0.0, 0.0, 0.0, 0.0, 0.0, 0.0, 0.0, 0.0, 0.0
0.100569009781, -0.020111649241, -0.0331957281404, -9.83127782035, 0.35234312785, -0.04007977855, -9.90449094705, 0.0084759516208, -0.0308253358189, -9.78184890764, 0.22193429615, 0.40618163635, -10.0091769358
0.150816917419, -0.0211627004877, -0.0373103975147, -9.83035690796, 0.3314059301, -0.0382851616, -9.8967142736, 0.00615341529535, -0.0287482375013, -9.78002576989, 0.2105683888, 0.4091726646, -10.0169536092
0.201041936874, -0.0185656709699, -0.0216678775915, -9.83186008417, 0.36071800695, 0.1280160091, -9.91047300355, 0.00676519506516, -0.0352948874215, -9.77969985602, 0.2129612114, 0.36430724085, -10.0175518149
0.251219987869, -0.0189353828786, -0.0281702464346, -9.83213861202, 0.34277183745, -0.04725824635, -9.90927659225, 0.00697508133378, -0.0335709676559, -9.78241863913, 0.21595223965, 0.38584264425, -10.0426764522
0.301399946213, -0.0163455162352, -0.030344441987, -9.83092254397, 0.35712877305, -0.0287138712, -9.88893760015, 0.00662465029586, -0.0285494664068, -9.78523700526, 0.2177468566, 0.4199403663, -10.0450692748
0.351675987244, -0.0166212424528, -0.0331791350976, -9.82911570161, 0.33320054705, -0.02452643165, -9.89252683405, 0.00606485652128, -0.0306472893661, -9.78643783096, 0.2189432679, 0.38225341035, -10.0331051618
0.401854991913, -0.0155956891123, -0.035813407138, -9.82925763594, 0.3361915753, -0.02452643165, -9.90808018095, 0.00718547445824, -0.034424560849, -9.78827719661, 0.2344966148, 0.37627135385, -10.0289177222
0.452038049698, -0.0169304953594, -0.0359910350153, -9.83004857513, 0.34037901485, -0.01734796385, -9.88415195495, 0.00748300522417, -0.0334223343867, -9.78549589445, 0.2165504453, 0.38943187815, -10.000203851
0.502223014832, -0.0204275541569, -0.0398964995814, -9.83195594776, 0.34516466005, -0.0143569356, -9.8919286284, 0.00539847306002, -0.0349880451701, -9.7849976472, 0.2189432679, 0.3744767369, -10.0247302827
0.552449941635, -0.0215382245996, -0.0411288491834, -9.83038575225, 0.33559336965, -0.0658026215, -9.89850889055, 0.00434261210212, -0.0439046833808, -9.79011364013, 0.21954147355, 0.33439695835, -10.060024416
0.60268497467, -0.0199194218716, -0.0430183787796, -9.83329535137, 0.34516466005, -0.0526420972, -9.91286582615, 0.00481538126922, -0.0452467987919, -9.78993854961, 0.2285145583, 0.4163511324, -9.9996056454
0.652856111526, -0.0213993025826, -0.0438720747489, -9.83244807114, 0.33559336965, -0.02452643165, -9.8907322171, 0.00587531166806, -0.0397628138033, -9.78675039997, 0.2285145583, 0.42412780585, -10.0301141335
0.703042030334, -0.0209973242814, -0.0407000106041, -9.83307549982, 0.3553341561, -0.00777667345, -9.89611606795, 0.00487242073063, -0.0377642654492, -9.79120435677, 0.22313070745, 0.37148570865, -10.0540423596
0.753212928772, -0.01948000749, -0.0517227662608, -9.83235300377, 0.34875389395, -0.06281159325, -9.91286582615, 0.00725627588578, -0.0315257925183, -9.7900241216, 0.227318147, 0.42293139455, -10.0283195166
0.803392887115, -0.0200050085674, -0.0503312556342, -9.83384196522, 0.32602207925, -0.0227318147, -9.9158568544, 0.00877265801948, -0.0271321568053, -9.78936952891, 0.24825534475, 0.42293139455, -10.0307123392
0.853606939316, -0.0179417239361, -0.0482051285912, -9.83305599918, 0.3541377448, -0.01974078645, -9.894321451, 0.00945057834978, -0.0294596554738, -9.78983233021, 0.22552353005, 0.37268211995, -10.0223374601
0.9038169384, -0.0180421062963, -0.0478996760894, -9.83142951522, 0.3397808092, -0.0179461695, -9.91884788265, 0.00928966447314, -0.0290161003225, -9.7853042715, 0.215354034, 0.4103690759, -10.0289177222
0.954049110413, -0.017314884193, -0.0471866961434, -9.8284997201, 0.34396824875, -0.0287138712, -9.89252683405, 0.00909168623224, -0.0350833584252, -9.78412870294, 0.2177468566, 0.35593236175, -10.0289177222
1.00431990623, -0.0170069909448, -0.0473449753366, -9.83070884134, 0.3481556883, -0.03768695595, -9.9038927414, 0.00956542184612, -0.0339739065929, -9.78277569462, 0.2165504453, 0.38225341035, -10.0103733471
1.0546169281, -0.0138964770265, -0.048150790261, -9.83009351209, 0.36909288605, -0.04007977855, -9.8955178623, 0.00787129099482, -0.031517956136, -9.78605889008, 0.23150558655, 0.42412780585, -10.0432746578
1.1048951149, -0.0168402757174, -0.0445486217849, -9.83133580458, 0.3194418171, -0.0191425808, -9.918249677, 0.0082957450483, -0.0289503365682, -9.78408191777, 0.22073788485, 0.4235296002, -10.0223374601
1.15510392189, -0.0196206072375, -0.0416077599772, -9.8304560518, 0.32721849055, 0.00658026215, -9.92482993915, 0.00661429067911, -0.0284575684718, -9.78753036926, 0.23389840915, 0.4091726646, -10.0187482262
1.20528888702, -0.0172953636949, -0.0476715028071, -9.82803424578, 0.3553341561, -0.05922235935, -9.8871429832, 0.00473520078008, -0.0271773052272, -9.78949714779, 0.20877377185, 0.42293139455, -10.0193464318
1.25551009178, -0.0181816085849, -0.0448602995577, -9.83142652348, 0.3421736318, -0.02452643165, -9.9110712092, 0.00430187224487, -0.0272230442255, -9.79433849509, 0.22073788485, 0.40618163635, -10.048060303
1.30582404137, -0.0198243607868, -0.0435051632484, -9.83735070338, 0.33678978095, -0.02691925425, -9.9266245561, 0.00319966645376, -0.0349475283442, -9.79271509007, 0.22073788485, 0.4127618985, -10.0414800409
1.35599207878, -0.0193746621498, -0.0452183677712, -9.8391822261, 0.35234312785, -0.02093719775, -9.92124070525, 0.000958387609043, -0.0337980816058, -9.7921234908, 0.20997018315, 0.4103690759, -10.0127661697
1.40617704391, -0.0185118426244, -0.0436459556404, -9.83321736795, 0.3601198013, -0.0251246373, -9.8680004024, 0.000644447926325, -0.0315031208657, -9.78983771432, 0.21595223965, 0.3744767369, -10.0337033674
1.45643806458, -0.0199805162018, -0.0480243350337, -9.83013332457, 0.346959277, -0.0263210486, -9.88415195495, 0.00155992502094, -0.0398796691287, -9.78519693027, 0.2189432679, 0.4151547211, -10.0091769358
1.50669598579, -0.0194413274709, -0.0350962387413, -9.83261232043, 0.3529413335, 0.1028913718, -9.88654477755, 0.00306987953596, -0.0420523398692, -9.786949036, 0.22552353005, 0.42053857195, -10.0181500206
1.55686593056, -0.0159995232559, -0.0347355171136, -9.83196090928, 0.35832518435, -0.0227318147, -9.8799645154, 0.00246066647187, -0.0416418317908, -9.78225419407, 0.20757736055, 0.40498522505, -9.99063256065
1.60706996918, -0.0165636824617, -0.033843766061, -9.83225617271, 0.34516466005, -0.00299102825, -9.89133042275, 0.00146647807621, -0.0371865681875, -9.78091038316, 0.2129612114, 0.4091726646, -10.0025966737
1.65734004974, -0.01840250647, -0.0360347092239, -9.8327406004, 0.33080772445, -0.0251246373, -9.9050891527, 3.15926073159e-06, -0.0376635492584, -9.77918181627, 0.21714865095, 0.4043870194, -10.0354979844
1.70764493942, -0.0193834791142, -0.0371692931404, -9.83428752373, 0.3493520996, -0.05802594805, -9.918249677, 0.00136622708919, -0.0370329543208, -9.77800899525, 0.2297109696, 0.430708068, -10.0205428432
1.75784301758, -0.0191888587251, -0.0358005123556, -9.83464175428, 0.3409772205, -0.0287138712, -9.89133042275, -0.000437727606679, -0.0297537828046, -9.78445993915, 0.2093719775, 0.42891345105, -10.0833544364
1.80803894997, -0.0167482395353, -0.0372547682761, -9.83592915333, 0.35892339, -0.04247260115, -9.91765147135, -0.00110853927441, -0.0257387033327, -9.78720750727, 0.2117648001, 0.44566320925, -10.0444710691
1.85821199417, -0.0180853972926, -0.0399162655836, -9.83786925504, 0.3397808092, -0.04007977855, -9.93200840695, 0.00203305007873, -0.0276789140025, -9.78661548884, 0.23030917525, 0.4055834307, -10.0103733471
1.90843200684, -0.0213758739245, -0.0499145544742, -9.8361027499, 0.33439695835, -0.05443671415, -9.894321451, 0.00326766708127, -0.0291487896845, -9.78585479726, 0.23389840915, 0.39421752335, -10.03609619
1.95863199234, -0.0221045255617, -0.0463205222731, -9.83210423489, 0.3529413335, 0.0023928226, -9.89611606795, 0.00305051680165, -0.0280064279663, -9.78617992584, 0.21714865095, 0.4235296002, -10.0301141335
2.00884103775, -0.024008594572, -0.0417575008473, -9.8328898176, 0.3206382284, -0.035892339, -9.8979106849, 0.00342282265935, -0.0315369582848, -9.78113179766, 0.2201396792, 0.38344982165, -10.0211410488
2.05907011032, -0.0246063649178, -0.0402853120043, -9.8329726961, 0.3457628657, -0.0406779842, -9.89850889055, 0.00363964375257, -0.0425210683376, -9.77668718276, 0.21236300575, 0.3493520996, -9.9888379437
2.10936403275, -0.0222072076649, -0.0391406954935, -9.83396106439, 0.3541377448, -0.00777667345, -9.90449094705, 0.00523301622858, -0.047272632326, -9.77874008809, 0.2356930261, 0.37627135385, -10.0372926013
2.15960001945, -0.0197972898831, -0.0357310026722, -9.83312854128, 0.35234312785, 0.0035892339, -9.90808018095, 0.00377788400065, -0.0417475166211, -9.77869207325, 0.21954147355, 0.4199403663, -10.0277213109
2.20977210999, -0.0210279152961, -0.0471025524543, -9.83245867003, 0.3433700431, -0.06640082715, -9.90449094705, 0.00109185572348, -0.0343440392147, -9.78008850902, 0.2177468566, 0.4223331889, -10.0325069561
2.2599260807, -0.0203794515849, -0.0428500971384, -9.83330542102, 0.3493520996, 0.0011964113, -9.918249677, 0.00206262747252, -0.0313890152744, -9.78077731558, 0.22193429615, 0.43010986235, -10.013962581
2.31086397171, -0.0181193995937, -0.0396329264796, -9.83418271512, 0.34516466005, -0.0, -9.9050891527, 0.000749250757738, -0.0341639426987, -9.77933125996, 0.22193429615, 0.39780675725, -10.0343015731
2.36103892326, -0.0175449893459, -0.0396172487105, -9.83385244551, 0.3433700431, -0.0275174599, -9.89252683405, 0.00424374267177, -0.031021801006, -9.78221578922, 0.22552353005, 0.42532421715, -10.03609619
2.41122508049, -0.0167903738892, -0.0398480839402, -9.83363963679, 0.33320054705, 0.0071784678, -9.90090171315, 0.00390026141227, -0.0274958803012, -9.7869912979, 0.22073788485, 0.40977087025, -10.037890807
2.4614880085, -0.0183229160402, -0.0413528430001, -9.83490208413, 0.33559336965, -0.0490528633, -9.9122676205, 0.00370333809144, -0.0294910610195, -9.78687704938, 0.23389840915, 0.4043870194, -10.000203851
2.51170611382, -0.0176817099116, -0.0428218075137, -9.8314042238, 0.3481556883, -0.0215354034, -9.8775716928, 0.00344768231951, -0.0261586347605, -9.78476682165, 0.22671994135, 0.44805603185, -10.0307123392
2.56195402145, -0.0224785986494, -0.0449938627336, -9.8293107399, 0.3098705267, -0.04845465765, -9.8895358058, 0.0059748359428, -0.0214567424785, -9.78181500282, 0.24466611085, 0.4319044793, -10.0133643753
2.61224603653, -0.019075110081, -0.0484450055404, -9.82702125436, 0.33678978095, -0.05084748025, -9.85065243855, 0.0073055992508, -0.0318751012548, -9.77823152364, 0.2321037922, 0.33678978095, -10.0067841132
2.66241598129, -0.0179242991116, -0.0432256194147, -9.82562294736, 0.3613162126, -0.0299102825, -9.8919286284, 0.00837591982065, -0.0339295564104, -9.77513357432, 0.2261217357, 0.37986058775, -10.0091769358
2.71258091927, -0.0193969017151, -0.0436953364757, -9.83028918725, 0.3182454058, -0.0143569356, -9.93320481825, 0.0062031466529, -0.0339783477964, -9.77252626538, 0.2165504453, 0.3864408499, -10.012167964
2.76286506653, -0.019564745659, -0.0506389595609, -9.83310044715, 0.35712877305, -0.03649054465, -9.91884788265, 0.00406406017042, -0.0351881944079, -9.77708675639, 0.2105683888, 0.4235296002, -10.0235338714
2.81333208084, -0.0218562993213, -0.0516248587168, -9.82978139029, 0.3254238736, -0.03529413335, -9.8907322171, 0.00295665278004, -0.0348245269709, -9.77984739213, 0.21595223965, 0.4079762533, -10.0402836296
2.86349797249, -0.0191182383957, -0.0473267248951, -9.82809195767, 0.3649054465, 0.00059820565, -9.8883393945, 0.00370471833133, -0.0344641537254, -9.7809528984, 0.2081755662, 0.4199403663, -10.0402836296
2.91368889809, -0.0162413594287, -0.0452122600606, -9.82549268206, 0.35473595045, -0.0167497582, -9.8835537493, 0.00344689389744, -0.0370348700268, -9.77882877289, 0.23030917525, 0.37387853125, -10.0319087505
2.9638299942, -0.0174953627113, -0.0466070982456, -9.82812358911, 0.346959277, -0.04845465765, -9.9266245561, 0.00242085575993, -0.0359614108322, -9.77936809564, 0.22313070745, 0.4115654872, -10.0181500206
3.01405191422, -0.0198720439203, -0.0281795691157, -9.82436718653, 0.3433700431, -0.047856452, -9.90329453575, 0.00754665324459, -0.0281183899332, -9.77963496801, 0.2428714939, 0.4486542375, -10.012167964
3.06422591209, -0.0172537630915, -0.0301964598897, -9.82963467062, 0.3637090352, -0.023928226, -9.9266245561, 0.00471872916961, -0.0284519232444, -9.78319160363, 0.20159530405, 0.4402793584, -10.0229356657
3.11443400383, -0.0190272744016, -0.0366756071817, -9.83674280956, 0.334995164, -0.01854437515, -9.9254281448, 0.00531146190189, -0.0297629630575, -9.78469062344, 0.2368894374, 0.40618163635, -10.0408818352
3.16461896896, -0.0193323760977, -0.0380733183574, -9.83540513675, 0.346959277, -0.04486542375, -9.8931250397, 0.00468640540448, -0.0313422972333, -9.78445188082, 0.2177468566, 0.38344982165, -10.0390872183
3.21485304832, -0.0231097555931, -0.0418594512405, -9.83225237657, 0.32123643405, -0.0334995164, -9.870393225, 0.00445975585513, -0.02941822262, -9.7823914066, 0.2297109696, 0.40019957985, -10.0157571979
3.26504206657, -0.0213897698409, -0.0392671934268, -9.83420911142, 0.35234312785, -0.01136590735, -9.91765147135, 0.00282252999065, -0.0293193439692, -9.78368952251, 0.21355941705, 0.43728833015, -10.037890807
3.31521892548, -0.0214003981387, -0.0381996726795, -9.83202786076, 0.334995164, -0.0047856452, -9.89731247925, 0.00706300282509, -0.0263804123079, -9.77735776833, 0.2416750826, 0.43489550755, -9.99541820585
3.36538505554, -0.0219792689478, -0.0410226153709, -9.83195746207, 0.3326023414, -0.02572284295, -9.8883393945, 0.00849048365382, -0.0302864359909, -9.77675883456, 0.2141576227, 0.37986058775, -10.0271231053
3.41554307938, -0.0200295439811, -0.0404520576637, -9.83407075697, 0.35892339, 0.0023928226, -9.91525864875, 0.00655286520153, -0.0281562105052, -9.77269592511, 0.22432711875, 0.43010986235, -10.0091769358
3.4667289257, -0.0197442504582, -0.0467772583286, -9.83474879874, 0.3373879866, -0.03649054465, -9.9050891527, 0.00643818869774, -0.0231704917357, -9.77011733648, 0.23868405435, 0.44925244315, -9.98823973805
3.51693892479, -0.0209129639257, -0.0490771401992, -9.83264197948, 0.34277183745, -0.0179461695, -9.8871429832, 0.00857062574767, -0.0249466184504, -9.7726348632, 0.22432711875, 0.40618163635, -10.001998468
3.56717801094, -0.0182047495268, -0.0460258998498, -9.83213268035, 0.35114671655, -0.01734796385, -9.91166941485, 0.00521029115565, -0.0271025675331, -9.77244907265, 0.2285145583, 0.3852444386, -10.0229356657
3.61744809151, -0.0216221006467, -0.0440657462473, -9.82985891531, 0.32482566795, -0.02452643165, -9.8907322171, 0.00655907913358, -0.0282452589198, -9.77394331002, 0.2356930261, 0.4271188341, -9.99781102845
3.66764307022, -0.0224862183519, -0.0390579361523, -9.82825955855, 0.34995030525, 0.0131605243, -9.8979106849, 0.00988983852208, -0.0113595116313, -9.777936731, 0.2368894374, 0.42173498325, -10.0396854239
3.7178170681, -0.025472942011, -0.0383678571438, -9.82995199717, 0.32961131315, -0.0299102825, -9.9122676205, 0.0114741391224, -0.0125203015588, -9.78073327943, 0.23509482045, 0.4283152454, -10.0438728635
3.76796102524, -0.0239260847154, -0.0379823727855, -9.82907361921, 0.34396824875, -0.0203389921, -9.8919286284, 0.0117644012296, -0.0172412011081, -9.77928362657, 0.2380858487, 0.42173498325, -10.0061859075
3.81819295883, -0.0234384046676, -0.0441364213505, -9.8266085129, 0.3397808092, -0.0514456859, -9.8799645154, 0.0114005691584, -0.0262021698408, -9.78066930281, 0.2249253244, 0.346959277, -10.0205428432
3.86840796471, -0.0206583584133, -0.044475362983, -9.82869799252, 0.346959277, 0.00418743955, -9.90090171315, 0.00906075838427, -0.0280890509691, -9.78106929102, 0.22313070745, 0.40019957985, -10.0079805245
3.91865301132, -0.0220422250418, -0.0446343386177, -9.83070194441, 0.32004002275, -0.02931207685, -9.93021379, 0.00715951180226, -0.0299954574864, -9.78285190909, 0.215354034, 0.38584264425, -10.0235338714
3.96883606911, -0.0202297760313, -0.0483181069368, -9.83020633075, 0.34995030525, -0.0299102825, -9.9003035075, 0.0061825869887, -0.02682544261, -9.78384725101, 0.23748764305, 0.40737804765, -10.0372926013
4.01908111572, -0.0241237882513, -0.0501816582158, -9.82652788341, 0.2979064137, -0.0574277424, -9.89133042275, 0.00646129439635, -0.0295222839136, -9.78213495666, 0.22791635265, 0.38464623295, -10.0444710691
4.06922698021, -0.0236788416549, -0.0468897176376, -9.82597719847, 0.32961131315, -0.01136590735, -9.8931250397, 0.00483430397284, -0.0284521848977, -9.78153416318, 0.22193429615, 0.41694933805, -10.0181500206
4.11940789223, -0.0234359745235, -0.047511202589, -9.82654196876, 0.323031051, -0.03529413335, -9.8907322171, 0.00286270348, -0.0296854082622, -9.78157740794, 0.2141576227, 0.40857445895, -10.0199446375
4.16955900192, -0.0210274743412, -0.0478185300452, -9.83031189534, 0.34755748265, -0.0334995164, -9.89970530185, 0.00367533862602, -0.0209637212968, -9.779649544, 0.2165504453, 0.46002014485, -10.0474620974
4.21977806091, -0.0214738107509, -0.0471030216781, -9.83067520709, 0.34755748265, -0.02691925425, -9.8991070962, 0.00295285526707, -0.0260604317974, -9.77892025773, 0.2093719775, 0.36909288605, -10.0145607866
4.26995801926, -0.0196287618505, -0.0468288422242, -9.83323350062, 0.34277183745, -0.00897308475, -9.894321451, 0.0061398639353, -0.0258818346644, -9.7793431901, 0.23030917525, 0.4151547211, -10.03609619
4.32017993927, -0.0226200171599, -0.0475695705211, -9.82698188414, 0.32961131315, -0.0299102825, -9.858429112, 0.00649249134459, -0.0332504859091, -9.78080172319, 0.22911276395, 0.36071800695, -10.0337033674
4.37035608292, -0.0203177859383, -0.0423049461905, -9.82435681817, 0.34396824875, -0.06041877065, -9.87458066455, 0.0101679163088, -0.0326942721487, -9.77861388017, 0.251246373, 0.37866417645, -9.9972128228
4.42053389549, -0.0185240867141, -0.0394964390933, -9.82594132544, 0.35353953915, -0.0251246373, -9.88654477755, 0.0107781454286, -0.032266064856, -9.78062374404, 0.25064816735, 0.40259240245, -10.0372926013
4.4707660675, -0.0196913310894, -0.0423062963696, -9.83173524693, 0.34995030525, -0.059820565, -9.9338030239, 0.00849675679969, -0.0296340713658, -9.78252092632, 0.20997018315, 0.43728833015, -10.0642118556
4.52094888687, -0.0188300323063, -0.0398791864624, -9.8279440536, 0.33200413575, -0.0071784678, -9.87816989845, 0.00575344993128, -0.0285725613177, -9.78390267457, 0.2117648001, 0.43728833015, -10.0217392544
4.57115006447, -0.0207048502511, -0.0376691610131, -9.82833851133, 0.32721849055, -0.0227318147, -9.90568735835, 0.00651449116533, -0.0283292734328, -9.78307117616, 0.23030917525, 0.3924229064, -10.0528459482
4.62133312225, -0.0193936135197, -0.0425035031022, -9.83069076688, 0.34037901485, -0.04127618985, -9.9003035075, 0.00535703278828, -0.0339737094219, -9.7788290286, 0.2213360905, 0.41096728155, -10.0115697584
4.67149806023, -0.0211792972034, -0.0458606627823, -9.82823632911, 0.33080772445, -0.03170489945, -9.88295554365, 0.00657026283901, -0.0300780805937, -9.7749355989, 0.24107687695, 0.42891345105, -10.0271231053
4.72168111801, -0.0218659798118, -0.0478740794562, -9.82891024966, 0.34755748265, -0.02572284295, -9.91765147135, 0.00564470315659, -0.0258996895814, -9.7784160215, 0.2225325018, 0.4235296002, -10.0390872183
4.7718539238, -0.0209991999393, -0.0529213545786, -9.83367685739, 0.3457628657, -0.01016949605, -9.9014999188, 0.00646971782791, -0.0270478047082, -9.7795385134, 0.23988046565, 0.4295116567, -10.0229356657
4.8220949173, -0.0175864999863, -0.0466002157627, -9.83194718663, 0.3409772205, -0.0263210486, -9.9098747979, 0.0068494038451, -0.0217761723506, -9.77820818907, 0.227318147, 0.4342973019, -10.0223374601
4.87226009369, -0.0181630086246, -0.0395081560305, -9.83029516879, 0.3314059301, 0.03768695595, -9.9050891527, 0.00434435406118, -0.024217633108, -9.78141192969, 0.20279171535, 0.4043870194, -10.0396854239
4.92242693901, -0.019135647351, -0.0379369217307, -9.8291481983, 0.34396824875, -0.0095712904, -9.8931250397, 0.00305208558856, -0.034026112706, -9.7811374216, 0.22432711875, 0.3421736318, -10.0127661697
4.97261500359, -0.0198337538718, -0.0373222481629, -9.83209552481, 0.3529413335, -0.0107677017, -9.90927659225, 0.000408139040231, -0.0377476492913, -9.78203371461, 0.2045863323, 0.3984049629, -10.0384890127
5.02291607857, -0.0207003597991, -0.0425802149476, -9.83087529158, 0.3421736318, -0.04247260115, -9.87099143065, 0.00301298059403, -0.0363435917573, -9.78222725737, 0.2129612114, 0.38464623295, -10.0420782466
5.07317304611, -0.0224291874977, -0.0445469263821, -9.83288430061, 0.34396824875, -0.05563312545, -9.9074819753, 0.00353498982666, -0.0405759543064, -9.77732924081, 0.2404786713, 0.37866417645, -9.99661461715
5.12341189384, -0.0207188685537, -0.045900680384, -9.83172395959, 0.34277183745, -0.03170489945, -9.90329453575, 0.0041193328306, -0.0348276933002, -9.78107271823, 0.2189432679, 0.42412780585, -10.0354979844
5.17361211777, -0.0201019388558, -0.0453379782182, -9.83618627745, 0.3529413335, -0.0299102825, -9.9074819753, 0.00642910917941, -0.0327810448968, -9.78232350093, 0.2344966148, 0.37028929735, -10.0366943957
5.22380900383, -0.0200302084537, -0.0432692474657, -9.83476944834, 0.34157542615, -0.0059820565, -9.88654477755, 0.00592518442132, -0.0312894908944, -9.7826594437, 0.2297109696, 0.4103690759, -10.0211410488
5.27405691147, -0.018177489878, -0.0419166066072, -9.8320066615, 0.3433700431, -0.02213360905, -9.8919286284, 0.00569646706227, -0.0324621906394, -9.78546196725, 0.22073788485, 0.3984049629, -10.0372926013
5.32427692413, -0.0170684158482, -0.0431197303155, -9.83196684175, 0.35473595045, -0.0323031051, -9.89133042275, 0.00508252785684, -0.0350466251426, -9.78482635389, 0.2416750826, 0.36430724085, -10.0343015731
5.37444090843, -0.0161253971445, -0.0402401630255, -9.83254811672, 0.3517449222, 0.00418743955, -9.8931250397, 0.00666496283904, -0.033058808272, -9.78134278501, 0.2404786713, 0.3900300838, -10.0313105448
5.42470788956, -0.0174373256001, -0.0421848839182, -9.83041675486, 0.3218346397, -0.0466600407, -9.90209812445, 0.00838342529912, -0.0316879588668, -9.77990294928, 0.2356930261, 0.42532421715, -10.0025966737
5.4749789238, -0.0153246481161, -0.0304598650567, -9.83181637454, 0.3637090352, 0.03649054465, -9.8931250397, 0.00897771210056, -0.029131260641, -9.78138160673, 0.2237289131, 0.4390829471, -10.0444710691
5.52518796921, -0.0160888182765, -0.0338381165519, -9.83494468406, 0.3433700431, -0.0311066938, -9.90808018095, 0.00967051066396, -0.0362833187357, -9.78051465435, 0.2416750826, 0.3960121403, -10.0175518149
5.57535290718, -0.0181461742112, -0.0372873406019, -9.83443886971, 0.3493520996, -0.02452643165, -9.882357338, 0.0110537844778, -0.0368057066294, -9.77943950276, 0.2201396792, 0.4055834307, -10.0145607866
5.62551903725, -0.0197082530131, -0.0412826298235, -9.83257638072, 0.33918260355, -0.03409772205, -9.9003035075, 0.011836675866, -0.0373131770008, -9.78041313604, 0.2309073809, 0.39780675725, -10.0301141335
5.67570996284, -0.0166343913345, -0.0511688312283, -9.83438615599, 0.33798619225, -0.0693918554, -9.9194460883, 0.00701038400579, -0.0388653472668, -9.77772043038, 0.22911276395, 0.42652062845, -9.99541820585
5.72591805458, -0.026380023463, -0.0471726966635, -9.83279091104, 0.287138712, -0.02093719775, -9.90449094705, 0.00676690453369, -0.0389216653521, -9.78195787715, 0.2237289131, 0.37148570865, -10.0546405652
5.7761080265, -0.0202849509342, -0.044467071902, -9.83245720369, 0.3613162126, -0.0622133876, -9.88534836625, 0.00631272742231, -0.0314716303669, -9.78084156249, 0.2177468566, 0.4271188341, -9.9984092341
5.82629108429, -0.0161585062692, -0.0467512528996, -9.83344780264, 0.3720839143, -0.0263210486, -9.8895358058, 0.00769731682607, -0.0329447187762, -9.78343913427, 0.24945175605, 0.4079762533, -10.03609619
5.87646508217, -0.0219746145921, -0.0437021352342, -9.83045158191, 0.30687949845, -0.03170489945, -9.90808018095, 0.00481085638812, -0.0383014317117, -9.78608753455, 0.1986042758, 0.3577269787, -10.0528459482
5.92668104172, -0.0227874682362, -0.05750413825, -9.82753707559, 0.3756731482, -0.0646062102, -9.91166941485, 0.0127071107866, -0.0475987496328, -9.79189914514, 0.3122633493, 0.34396824875, -10.0504531256
5.97683691978, -0.0109891313143, -0.055151754245, -9.82708762245, 0.3864408499, -0.00418743955, -9.88893760015, 0.0124759695657, -0.0313995034085, -9.79259318408, 0.1878365741, 0.5012963347, -10.0719885291
6.02708792686, -0.0239423650734, -0.0223230745923, -9.83040937764, 0.28414768375, 0.08554340795, -9.906285564, -0.000179406795872, -0.0270988422021, -9.78179549583, 0.2021935097, 0.38225341035, -10.0097751414
6.07725000381, -0.0160510673637, -0.0662508178559, -9.82742076527, 0.37387853125, -0.11545369045, -9.8907322171, 0.00425484985431, -0.0511192056643, -9.78712578158, 0.20877377185, 0.33439695835, -10.0372926013
6.12743496895, -0.0141767182501, -0.0617938925447, -9.82841115848, 0.3457628657, 0.0023928226, -9.9014999188, 0.00488188114799, -0.0456109980876, -9.78832596181, 0.22073788485, 0.4474578262, -10.0265248996
6.17761206627, -0.0248770824303, -0.0364308007257, -9.83031361679, 0.3218346397, 0.02093719775, -9.906285564, -0.00363116470613, -0.0304534329285, -9.79048255499, 0.1746760498, 0.51026941945, -10.0103733471
6.22810697556, -0.013620901682, -0.0452847468763, -9.82940242344, 0.4163511324, -0.1052841944, -9.91166941485, 0.00574350516448, -0.0255010806454, -9.79234718161, 0.2620140747, 0.43968115275, -10.0456674804
6.27831196785, -0.00529940106964, -0.0434018234452, -9.82747034506, 0.3062812928, 0.01974078645, -9.92602635045, 0.00785540409906, -0.018050335558, -9.78781177594, 0.1591227029, 0.4630111731, -10.0408818352
6.32860994339, -0.0288158350714, -0.0387278800191, -9.82776338161, 0.2344966148, -0.03170489945, -9.86500937415, -0.0121757565673, -0.016450336871, -9.78839108861, 0.13459627125, 0.36191441825, -10.0097751414
6.37897610664, -0.0200441063507, -0.0354160834279, -9.82578375853, 0.4235296002, 0.02213360905, -9.85424167245, 0.00134799801497, -0.0106878365258, -9.78561332782, 0.27577280465, 0.4845465765, -9.9888379437
6.42915511131, -0.0152437341705, -0.0499070753819, -9.82815297791, 0.31525437755, -0.11784651305, -9.9086783866, 0.00188437825581, -0.0319729272868, -9.79017398621, 0.17048861025, 0.3134597606, -10.0384890127
6.47938489914, -0.0251279679736, -0.0502005266784, -9.831893584, 0.28893332895, -0.0059820565, -9.9481599595, -0.0100132813953, -0.0291573476748, -9.7922606114, 0.14536397295, 0.48275195955, -10.0654082669
6.52956199646, -0.0209670187454, -0.0322713625478, -9.8315506095, 0.3924229064, 0.01974078645, -9.93440122955, 0.00744687712933, -0.00526709331122, -9.78746212576, 0.3026920589, 0.4654039957, -10.0450692748
6.57972192764, -0.00962822630027, -0.0384639553517, -9.83265364078, 0.3804587934, -0.06161518195, -9.93200840695, 0.0147236577753, -0.00942193406509, -9.78525443101, 0.2356930261, 0.42771703975, -10.0420782466
6.62990903854, -0.0251989203565, -0.052729572487, -9.8478919362, 0.275174599, -0.0885344362, -9.9146604431, -0.00414423441464, -0.0278730141857, -9.78393926702, 0.14416756165, 0.3517449222, -10.0037930849
6.68007397652, -0.0194203375357, -0.0633750699008, -9.84490034818, 0.3756731482, -0.0382851616, -9.9038927414, 0.00665741411143, -0.0395411987567, -9.78377971521, 0.2739781877, 0.3577269787, -10.0438728635
6.73030209541, -0.0105050266344, -0.0522142842231, -9.83818477322, 0.37746776515, 0.0275174599, -9.88295554365, 0.0114401237578, -0.0221749797174, -9.78077018229, 0.251246373, 0.5180460929, -10.0319087505
6.78047800064, -0.0131214520924, -0.0483894481665, -9.83749481327, 0.32362925665, -0.08315058535, -9.90329453575, 0.00497752804911, -0.0132471423172, -9.77903116622, 0.1866401628, 0.39182470075, -10.0229356657
6.83065605164, -0.0158057256789, -0.0649732497713, -9.83724710974, 0.35473595045, -0.1256231865, -9.9098747979, 0.00227881437128, -0.0267611524769, -9.78002256287, 0.203389921, 0.3146561719, -10.0187482262
6.88081693649, -0.018402212675, -0.0661152642201, -9.83363239176, 0.34995030525, -0.0550349198, -9.9170532657, 0.00248577485071, -0.0248516822853, -9.78176431862, 0.2333002035, 0.46480579005, -10.0438728635
6.930975914, -0.00987775336174, -0.0530519865702, -9.83325115013, 0.3900300838, 0.0526420972, -9.92004429395, 0.0126313871226, -0.0163602228361, -9.78190142115, 0.2883351233, 0.43728833015, -10.04985492
6.98118901253, -0.00526406895751, -0.0492065272929, -9.83185361012, 0.370887503, -0.03409772205, -9.88654477755, 0.0155432489473, -0.0186705794662, -9.78188086896, 0.23150558655, 0.39062828945, -10.025926694
7.03136396408, -0.0150698892345, -0.048420921971, -9.83216693243, 0.32602207925, -0.0299102825, -9.9014999188, 0.0100020073166, -0.0213847623221, -9.7798725617, 0.22791635265, 0.4402793584, -9.98465050415
7.08151102066, -0.015481665797, -0.049445396653, -9.83003621092, 0.3565305674, -0.02931207685, -9.88415195495, 0.00748523331296, -0.0201023695334, -9.78167916842, 0.2201396792, 0.41216369285, -10.0408818352
7.13170289993, -0.013645332924, -0.0478718271037, -9.82462429889, 0.33200413575, -0.0334995164, -9.8644111685, 0.0139023942402, -0.0234424958579, -9.7841713864, 0.22552353005, 0.46002014485, -10.0265248996
7.18189501762, -0.0151233887, -0.038621761783, -9.82886187436, 0.3361915753, 0.0502492746, -9.9146604431, 0.00960366889006, -0.0165647445424, -9.7874882364, 0.2021935097, 0.44805603185, -10.0313105448
7.23207902908, -0.0166916279592, -0.0328232684756, -9.83038795126, 0.3409772205, -0.03050848815, -9.9158568544, 0.00416337880561, -0.0186615722417, -9.78868675541, 0.2213360905, 0.37387853125, -10.0432746578
7.28226590157, -0.0166935792034, -0.0434812903192, -9.8301445888, 0.35593236175, -0.05563312545, -9.9098747979, 0.00373700148504, -0.0269833293918, -9.78486452598, 0.2213360905, 0.35952159565, -10.0008020567
7.33241391182, -0.0180959180883, -0.0375945791835, -9.83232324994, 0.35593236175, -0.01016949605, -9.9254281448, 0.00285008905744, -0.021028403216, -9.78869191782, 0.21834506225, 0.43369909625, -10.0444710691
7.38258695602, -0.016873925168, -0.0362493371852, -9.82893650651, 0.36550365215, -0.011964113, -9.87458066455, 0.00453365636053, -0.0224936799694, -9.78274507747, 0.22432711875, 0.3972085516, -10.0037930849
7.43276000023, -0.0170207016376, -0.0362962819015, -9.8290586494, 0.32721849055, -0.01256231865, -9.8811609267, 0.00668697733403, -0.0202528357653, -9.78273771022, 0.2225325018, 0.41694933805, -10.0163554036
7.48290205002, -0.01371785426, -0.0426992152377, -9.8299053422, 0.36789647475, -0.0729810893, -9.918249677, 0.00779706933356, -0.0253649733869, -9.78080552055, 0.23988046565, 0.37028929735, -10.0175518149
7.53307509422, -0.0185440467351, -0.044786885973, -9.8317696285, 0.323031051, -0.0215354034, -9.9122676205, 0.00389265248369, -0.0277769905319, -9.77846277957, 0.19561324755, 0.38703905555, -9.99900743975
7.58324503899, -0.0287697385911, -0.0281573208916, -9.83115695568, 0.29132615155, -0.01734796385, -9.9003035075, -0.00394452021074, -0.0282602254264, -9.78277778591, 0.1962114532, 0.4295116567, -10.0516495369
7.6335670948, -0.0226483326553, -0.0451096518522, -9.8295949993, 0.38344982165, -0.095712904, -9.90568735835, 0.0044258378163, -0.0395438836714, -9.78005433246, 0.263210486, 0.36550365215, -9.9984092341
7.68386101723, -0.0118694528728, -0.0412597758768, -9.83047139087, 0.4163511324, -0.0550349198, -9.90449094705, 0.0184381341267, -0.0258621013023, -9.77943956219, 0.3134597606, 0.49950171775, -10.0067841132
7.73422408104, -0.00147005137914, -0.0394099919973, -9.83368910629, 0.38225341035, -0.1447657673, -9.91166941485, 0.0235153747127, -0.0140776254093, -9.7786575552, 0.2440679052, 0.46839502395, -10.0145607866
7.78457903862, 0.00498585213589, -0.0340707670993, -9.83309369898, 0.3972085516, -0.0023928226, -9.9050891527, 0.0335237894533, -0.0128017335825, -9.77881066536, 0.3026920589, 0.4103690759, -10.013962581
7.83480095863, 0.0409377186553, -0.0404066949111, -9.83275929207, 0.6113661743, -0.05084748025, -9.8859465719, 0.0783816305829, -0.0227121588191, -9.77846170169, 0.50907300815, 0.3529413335, -10.0366943957
7.88498902321, 0.0848536137723, -0.0363496823585, -9.83338142728, 0.63110696075, 0.0227318147, -9.9230353222, 0.118009342919, -0.0223141514309, -9.77955531454, 0.52223353245, 0.42771703975, -10.0289177222
7.93523192406, 0.151262990075, -0.0387225276399, -9.84352244983, 0.8506484343, -0.0909272588, -9.94995457645, 0.185192551284, -0.0246119061936, -9.78471831135, 0.7250252478, 0.39182470075, -10.0474620974
7.98554396629, 0.284513793199, -0.0532303350344, -9.85234929446, 0.95772724565, -0.0346959277, -9.9804630646, 0.267325817824, -0.0260842538788, -9.78715357827, 0.89072821285, 0.43609191885, -10.0343015731
8.03657388687, 0.403412501464, -0.0614108154529, -9.8462822292, 1.3004990831, -0.1040877831, -9.8955178623, 0.43615320318, -0.0502318139811, -9.78265993561, 1.1593225497, 0.28295127245, -9.99422179455
8.08673906326, 0.572233724557, -0.0484069766772, -9.83312906049, 1.35613220855, 0.0729810893, -9.9338030239, 0.600756999738, -0.0363655806661, -9.77218885255, 1.22691978815, 0.5371886737, -10.0941221381
8.1368830204, 0.639133643063, -0.00447894636755, -9.82017943818, 1.24965160285, 0.191425808, -9.8596255233, 0.661827363879, 0.000820011826953, -9.76782824197, 1.0971091621, 0.61675002515, -10.0695957064
8.18711495399, 0.638867916733, 0.00646266745978, -9.82335924322, 0.94576313265, 0.02093719775, -9.8321080634, 0.66304907316, 0.0195146138313, -9.76462516051, 0.84885381735, 0.49710889515, -9.89252683405
8.23731708527, 0.616309179986, 0.0177531587107, -9.81043614721, 0.8434699665, 0.0634097989, -9.70708308255, 0.641472906857, 0.00734297180464, -9.75783611712, 0.71964139695, 0.4319044793, -9.85783090635
8.28747296333, 0.56250968706, -0.00130002682885, -9.83252202061, 0.66101724325, -0.0526420972, -10.0247302827, 0.591227940348, 0.00927477479576, -9.78675887087, 0.59162538785, 0.47916272565, -10.1479606466
8.33768105507, 0.492282036083, -0.00540309210487, -9.82058504436, 0.4833501652, -0.0610169763, -9.82552780125, 0.511359011513, 0.0119163053886, -9.77138668296, 0.3194418171, 0.3768695595, -9.99900743975
8.38786697388, 0.392788998156, 0.00857540260475, -9.83028654762, 0.4378865358, 0.25184457865, -9.90449094705, 0.405468064309, 0.00813999919466, -9.77791901251, 0.28295127245, 0.5120640364, -10.0014002623
8.43809008598, 0.334750442626, 0.00967876063235, -9.82288398405, 0.44805603185, 0.0658026215, -9.9673025403, 0.338807759323, 0.0191985366132, -9.77911573631, 0.2536391956, 0.49710889515, -10.1581301426
8.48821997643, 0.222675460878, 0.0191513292952, -9.7994200873, 0.34396824875, -0.02691925425, -9.5629155209, 0.228716463933, 0.0266655013885, -9.75190003864, 0.2093719775, 0.430708068, -9.8488578216
8.53838992119, 0.193776023373, 0.0139321985151, -9.851224149, 0.4259224228, 0.0382851616, -10.0414800409, 0.211359807501, 0.0229160527747, -9.78352991022, 0.3182454058, 0.34277183745, -9.9828558872
8.58857798576, 0.116857983601, -0.0119623060598, -9.84506577649, 0.0658026215, -0.2656033086, -10.2472627845, 0.134244058225, -0.014452022856, -9.80122388134, -0.05443671415, 0.1399801221, -10.4554383507
8.63883399963, 0.097655602111, -0.101546690099, -9.84285802393, 0.35712877305, -0.24346969955, -10.2341022602, 0.110605292374, -0.0794532304511, -9.81573514286, 0.16570296505, 0.3816552047, -10.4691970806
8.68910288811, 0.107937661485, -0.0885769679991, -9.83624335186, 0.681954441, 0.00538385085, -9.73579695375, 0.131584082659, -0.0535824886889, -9.79457032455, 0.5778666579, 0.5455635528, -9.87338425325
8.73931097984, 0.130597171438, -0.065882287288, -9.8514007602, 0.6233302873, 0.2428714939, -10.0313105448, 0.157990020645, -0.039410017412, -9.79828349795, 0.6041877065, 0.66221365455, -10.1377911506
8.78944611549, 0.205591450956, 0.00420554375474, -9.84196057489, 0.65623159805, 0.1603191142, -9.9708917742, 0.215578893371, 0.0229103599953, -9.78908454587, 0.41216369285, 0.574277424, -10.097711372
8.83970689774, 0.23363291448, 0.0510823654483, -9.78823424356, 1.06301144005, 0.23150558655, -9.6323073763, 0.269159083763, 0.0664446980987, -9.7491089535, 0.92781696315, 0.65503518675, -9.97866844765
8.88996195793, 0.221449548909, -0.0156042553354, -9.76222024171, 0.75912296985, -0.3541377448, -9.26800013545, 0.257675017715, -0.0113491080392, -9.72478481248, 0.7992027484, -0.02811566555, -9.58863836385
8.94015789032, 0.291163935877, -0.117386371435, -9.88416109575, 0.6484549246, -0.6520441585, -10.6522480096, 0.301229027328, -0.0992935682947, -9.84124756961, 0.4019941968, -0.0933200814, -10.4727863145
8.99041104317, 0.226681388947, -0.193991398331, -9.78975463697, 0.49471607255, -0.574277424, -9.72024360685, 0.272637357864, -0.175194585172, -9.80298413851, 0.63708901725, 0.00538385085, -10.3764752049
9.04064798355, 0.228314893103, -0.183673592714, -9.81802015826, 0.0131605243, 0.14057832775, -10.0995059889, 0.237212663321, -0.160029158244, -9.81818846059, -0.10348957745, 0.5706881901, -10.5248302061
9.09082198143, 0.267257254355, -0.122988079825, -9.81571790083, 1.16350998925, 0.131605243, -9.5497549966, 0.290780146124, -0.119441213795, -9.77428631556, 1.0253244841, 0.40019957985, -9.63290558195
9.14101409912, 0.210242202543, -0.132923568492, -9.84113723201, 0.14656038425, -0.18364913455, -9.9254281448, 0.228078035168, -0.137723525979, -9.80778243833, -0.04366901245, 0.24825534475, -9.8787681041
9.19117903709, 0.215292241205, -0.207364347591, -9.81767805323, 0.51984070985, -0.21595223965, -9.9649097177, 0.241847577658, -0.192320359882, -9.79900066829, 0.3134597606, 0.3792623821, -10.0959167551
9.24137496948, 0.212034908376, -0.125350066341, -9.81020051426, 0.69092752575, 0.2476571391, -9.5748796339, 0.237501500066, -0.108825385816, -9.78538828345, 0.4366901245, 0.6747759732, -9.7830552001
9.29161906242, 0.196558975535, -0.0494548851452, -9.80583662968, 0.3278166962, 0.28414768375, -9.18425134445, 0.238760840361, -0.0473380288476, -9.75189962958, 0.3493520996, 0.4642075844, -9.3834538259
9.34181809425, 0.246380995561, -0.00438500601996, -9.81844980828, 0.77946196195, 0.18484554585, -9.5892365695, 0.2835643707, -0.0210458359348, -9.75308403261, 0.64187466245, 0.3254238736, -9.6717889492
9.39200997353, 0.245729265803, -0.0613994565292, -9.86149963646, 0.57846486355, -0.14536397295, -9.90449094705, 0.290261203592, -0.0706753194097, -9.79933640957, 0.4438685923, 0.25902304645, -9.7878408453
9.44216990471, 0.26777647969, -0.160327758782, -9.79928773477, 0.94695954395, -0.2488535504, -9.08734202915, 0.305818597288, -0.160327169969, -9.74995575745, 0.74476603425, 0.08195417405, -9.02991428675
9.49230790138, 0.255025706069, -0.116173672583, -9.81004414353, 0.2380858487, 0.30568308715, -9.77288570405, 0.297363891959, -0.0993436111922, -9.76295603102, 0.09990034355, 0.7166503687, -9.6658068927
9.54247999191, 0.240735224633, -0.0733954936785, -9.86064093179, 0.5515456093, -0.2189432679, -10.0354979844, 0.278787270294, -0.0759948023761, -9.77347077488, 0.31645078885, 0.1830509289, -10.0731849404
9.59267091751, 0.247503153298, -0.0277106733886, -9.86858769467, 0.6209374647, 0.08075776275, -10.3669039145, 0.289556260152, -0.0546216422211, -9.76813080611, 0.50189454035, 0.2476571391, -10.3675021202
9.6428630352, 0.227507596883, 0.000225233392256, -9.87613125306, 0.48514478215, 0.02452643165, -10.2245309698, 0.246612119946, -0.0527909447176, -9.7748483077, 0.21834506225, 0.20159530405, -10.3357972207
9.6930680275, 0.152535908473, -0.12358980415, -9.92522901024, 0.5455635528, -0.93020978575, -10.8059868616, 0.176775640249, -0.167512401023, -9.81579110701, 0.53898329065, -0.30687949845, -10.5702938355
9.74323701859, 0.173836317208, -0.277960666028, -9.9818244749, 1.10488583555, -0.7513462964, -11.5058874721, 0.165286000679, -0.306668594691, -9.86955108036, 0.80339018795, -0.1351944769, -10.8370935554
9.79339599609, 0.108100643442, -0.0113685016403, -9.73255483468, -0.81535430095, 1.18025974745, -9.8560362894, 0.0788285537867, -0.0578721179547, -9.76190795972, -0.6364908116, 1.21734849775, -11.6967150744
9.84360408783, 0.201349329319, 0.0502340938139, -9.76765550462, 1.7096717477, 0.25064816735, -8.12901657785, 0.188702388985, -0.00909878452579, -9.68864325954, 1.50927285495, -0.0813559684, -8.35154907965
9.89378499985, 0.157857768592, 0.00752252971422, -9.88915339919, 0.9140582332, 0.04127618985, -10.1946206873, 0.0973438764805, -0.0148322480277, -9.78115481792, 0.8003991597, 0.56410792795, -9.7423772159
9.9439868927, 0.122627622511, 0.0224111839025, -9.85454618651, -0.1842473402, 0.1591227029, -10.7126667802, 0.0522700221257, 0.0190396786091, -9.78418938185, -0.0610169763, 0.8398807326, -11.0333050086
9.9941470623, 0.181800116588, -0.0457663300395, -9.8160696736, 1.47457692725, -0.4833501652, -9.6681997153, 0.153526961293, -0.0503496273242, -9.72842402273, 1.23050902205, -0.0777667345, -9.6634140701
10.0445311069, 0.0968982722075, -0.114677061604, -9.83158766706, -0.2117648001, -0.4414757697, -10.1802637517, 0.0957384395576, -0.114104320433, -9.7917745688, -0.07118647235, 0.3086741154, -10.420742423
10.094712019, 0.154225044028, -0.120204585288, -9.81071522397, 0.76031938115, -0.2081755662, -9.4683990282, 0.107731118343, -0.12704869738, -9.7214319988, -0.04965106895, 0.2739781877, -9.05623533535
10.1449348927, 0.172438583196, -0.0677085017728, -9.83716184365, 1.8029918291, 0.3792623821, -9.49771110505, 0.17148776378, -0.0543802263, -9.75468231284, 1.79880438955, 0.7812565789, -9.45822953215
10.195086956, 0.0828787373663, -0.059427257013, -9.91506118784, -0.38703905555, -0.3481556883, -11.774481809, 0.0931241694734, -0.035229487802, -9.92391521897, -0.3661018578, 0.5060819799, -12.1938239696
10.2453219891, 0.131980381172, -0.105020568737, -9.77853244918, 1.160518961, -0.5443671415, -9.33619557955, 0.148620797757, -0.0933325769076, -9.81912138246, 1.0109675485, 0.1328016543, -10.7425770627
10.2954990864, 0.0430255634413, -0.0638196161244, -9.78557895323, -0.00179461695, 0.4510470601, -8.93061214885, 0.0820356688662, -0.0997732893564, -9.73633871106, 0.12143574695, 0.42771703975, -8.7326060787
10.3457920551, 0.122490945557, -0.0583111588477, -9.96131099005, 0.61316079125, 0.3206382284, -11.2528464821, 0.176410813571, -0.0727875003357, -9.91664214916, 0.7633104094, 0.88474615635, -10.9980108752
10.3959760666, 0.0665893337742, -0.0529555055148, -9.94281076147, 0.8901300072, 0.1722832272, -11.3706929952, 0.118137468829, -0.031904977785, -9.89403597476, 0.873380249, 0.57846486355, -10.8538433136
10.4461650848, 0.0584150500641, -0.038432460616, -9.77053102595, -0.0526420972, -0.1543370577, -8.68415142105, 0.0662474268644, -0.0309567460933, -9.72255425717, -0.65982083195, 0.2488535504, -9.24526832075
10.4964449406, -0.0180705576046, -0.0628243437339, -9.8612278128, 0.3421736318, 0.24107687695, -9.2255275343, 0.0429223835487, -0.0580889899391, -9.78587748591, 0.52701917765, 0.1399801221, -9.20817957045
10.5467350483, 0.000273244583302, -0.106797133771, -9.84544590923, -0.4737788748, 0.12382856955, -9.56112090395, 0.0351377773834, -0.0890631204302, -9.80889810217, -0.7202396026, 0.43010986235, -10.3005030873
10.596914053, 0.00469962093173, -0.190046991009, -9.91133477223, 0.42412780585, -0.4211367776, -10.7210416593, 0.0492836380431, -0.0998211760332, -9.84728340018, 0.1471585899, 0.4869393991, -10.7312111553
10.6470999718, -0.0491194315123, -0.158623128255, -9.81623391113, 0.3337987527, -0.17527425545, -8.9395852336, -0.00276844916307, -0.0921124386999, -9.76264881413, 0.49232324995, 0.20518453795, -9.2350988247
10.6972839832, -0.020030877517, -0.258170852048, -9.95711058576, -0.2691925425, -1.15393869885, -11.0739829928, 0.0170913219919, -0.21075575501, -9.93447177577, -0.41216369285, -0.32602207925, -11.3228365432
10.7474648952, 0.0965478138196, -0.0563430887508, -9.91445533545, 0.75553373595, 0.3505485109, -8.94137985055, 0.183782872652, -0.0593525965248, -9.92548363121, 1.7060825138, 0.92542414055, -10.8047904503
10.7977221012, -0.0826267304201, -0.0496290488716, -9.83043854162, -0.83569329305, 0.0502492746, -10.0211410488, 0.0147102869853, -0.0338672747776, -9.84467296371, -0.44925244315, 0.91585285015, -10.0588280047
10.8479130268, 0.136291901166, -0.096994289295, -9.88008190026, 1.61336063805, -0.0777667345, -10.0325069561, 0.224589164352, -0.0906439393853, -9.87366701312, 1.3004990831, 0.6089733517, -9.9529456047
10.8980910778, 0.0528159227001, -0.114527606207, -9.96202968522, 0.3302095188, 0.14775679555, -11.5405833998, 0.123068047393, -0.108507993213, -9.94344272972, 0.7022934331, 0.538385085, -10.8909320639
10.9482960701, 0.256983505928, -0.0421901886185, -9.76029176244, 1.25802648195, 0.17168502155, -9.5976114486, 0.249936190705, -0.0602773574788, -9.71964649125, 0.4582255279, 0.82971123655, -9.5018985446
10.9985029697, 0.236904831272, 0.0937746082371, -9.69986451122, 0.3924229064, 1.136590735, -9.73579695375, 0.322523577721, 0.0734219382246, -9.70440438486, 0.5874379483, 1.10129660165, -8.1798640581
11.0487411022, 0.160861115653, -0.07656219515, -9.89160711743, -0.76630143765, -1.39681019275, -10.8107725068, 0.106464127279, -0.0394106797631, -9.85098270511, -1.09052889995, -0.5730810127, -10.981261117
11.0988988876, 0.244707445687, -0.211346569779, -9.81128542292, 1.75573358275, -0.8518448456, -10.3495559506, 0.263836977731, -0.201674523689, -9.74561732596, 1.67497582, -0.5048855686, -10.1342019166
11.1491069794, 0.0892170909646, -0.139439080917, -9.87943328452, -0.6807580297, 0.32961131315, -10.1730852839, 0.142299902727, -0.0619715264058, -9.78242496258, -0.215354034, 0.97088776995, -9.76211800235
11.19927001, 0.0510407734231, -0.0933607633339, -9.87743357661, -0.14656038425, -0.3649054465, -9.5210411254, 0.0817731022313, 0.00415116588534, -9.7690516536, -0.5132604477, 0.42532421715, -9.5940222147
11.249464035, -0.0202570799193, -0.195085001903, -9.85518673393, 0.38703905555, -0.44925244315, -10.1539427031, 0.0588900066313, -0.108160090742, -9.82119541087, 0.6831508523, -0.06041877065, -10.8418792006
11.2996919155, -0.0310850899406, -0.168721865918, -9.78764732766, -0.34755748265, 0.2943171798, -8.7230347883, -0.0359344673491, -0.0613594653593, -9.7033819326, -0.6412764568, 0.62871413815, -8.9156570076
11.3499109745, 0.0525138033774, -0.191929084547, -9.83364764629, 0.9631110965, -0.3816552047, -9.41037308015, 0.0519559440294, -0.0381187124613, -9.7208683717, 0.62033925905, 0.5754738353, -9.10528819865
11.4001700878, -0.0802842918773, -0.149858486841, -9.95412497582, -0.6041877065, -0.5730810127, -12.90748331, -0.0550824698597, -0.0292600576187, -9.95500052893, -0.4438685923, 0.15732808595, -13.3357985555
11.4503691196, -0.0360154492322, -0.0726619812129, -9.91873466117, 0.58803615395, -0.4271188341, -12.011969452, 0.0349701296103, -0.00684466145312, -9.8399756677, 0.4199403663, -0.1866401628, -12.000005339
11.5005509853, -0.0374844609681, -0.218566264517, -9.83111715713, 0.6496513359, -1.09292172255, -9.72622566335, 0.10154593575, -0.142514379238, -9.78863784019, 0.7932206919, -0.6077769404, -10.2023973607
11.5507330894, -0.283258763582, -0.082084529258, -9.86555310421, -1.1856435983, 0.97926264905, -9.8201439504, -0.110252464355, 0.0140316680565, -9.80078723434, -0.6245266986, 1.4703894877, -10.0749795573
11.6009290218, -0.182333774176, 0.026447645787, -9.77791247433, 0.62991054945, 0.41814574935, -9.18185852185, 0.00225661986763, 0.111254974783, -9.70531791803, 0.45762732225, 0.74596244555, -9.61017376725
11.6511569023, -0.0969463054688, -0.160337698345, -9.76996786218, 0.1770688724, -0.9260223462, -12.3619197573, -0.055105904138, -0.0677791658475, -9.91857430886, -0.203389921, 0.17168502155, -14.34317687
11.70165205, -0.210495329764, -0.271630225084, -9.98715919058, -0.2189432679, -0.263210486, -11.0374924481, -0.233565318711, -0.149187156147, -9.93071113506, 0.07118647235, 0.6903293201, -10.5224373835
11.7532799244, -0.0280234660033, -0.242938856068, -9.825984668, 1.8867406201, 0.38105699905, -10.1042916341, -0.134003677737, -0.125028091809, -9.72848246243, 0.4594219392, 1.2299108164, -9.6777710057
11.8034720421, -0.257437775134, -0.0390586870338, -9.93632473791, -0.8721838377, 0.97447700385, -11.0697955532, -0.372812529762, 0.0564630556466, -9.83871524587, -0.9702895643, 1.65284221095, -10.2269237924
11.8536529541, -0.313004472101, 0.117435548206, -9.73558911931, -1.27836547405, 0.3696910917, -8.5160556334, -0.295435586632, 0.125546023703, -9.74148384976, -1.06899349655, 0.4163511324, -9.2685983411
11.9038720131, -0.286539498724, -0.0194287211693, -9.66549308904, 0.6352944003, -0.39421752335, -8.2301133327, -0.195340932747, -0.00584620628122, -9.72239686152, 0.9954142016, 0.1926222193, -9.30030324055
11.9540901184, -0.313707079351, -0.0608191572292, -9.70232252464, -0.5694917788, 0.05443671415, -8.7828553533, -0.206298202353, -0.0391432718558, -9.63456548151, -0.622133876, 0.5766702466, -8.27617516775
12.0042729378, -0.234043884066, -0.168430945722, -9.830071215, 0.7477570625, -0.1986042758, -10.8161563576, -0.0675744111298, -0.119854157947, -9.84002089526, 0.64426748505, 0.12981062605, -11.7032953366
12.0545010567, -0.280134788002, -0.147945640095, -9.83626490465, -0.10229316615, -0.10468598875, -9.87458066455, -0.10315427912, -0.094682119061, -9.8134162602, 0.1184447187, 0.41336010415, -10.6253287553
12.1046490669, -0.219324025002, -0.112020874047, -9.93052318735, 0.12981062605, 0.19441683625, -10.3346008094, -0.136583552259, -0.0555369458857, -9.82090434253, -0.0502492746, 0.43968115275, -9.6466643119
12.1548769474, -0.202642380863, -0.109031152053, -9.90792810661, 0.5647061336, -0.18484554585, -11.3754786404, -0.152208210799, -0.0748105156564, -9.83473346407, 0.490528633, 0.2488535504, -11.4574328144
12.2051010132, -0.114617753347, -0.0980671005562, -9.92996908026, 0.89312103545, 0.21714865095, -10.5750794807, -0.0615600505177, -0.0557321615272, -9.88499189941, 0.6831508523, 0.71365934045, -10.743773474
12.2553310394, -0.146294829825, -0.121728432241, -9.85934214328, -0.76031938115, -0.62871413815, -9.6012006825, -0.167704856537, -0.0994577132551, -9.80727796919, -0.92542414055, 0.10109675485, -10.2191471189
12.3055090904, -0.114218530316, -0.0379610386729, -9.74721857359, 0.4498506488, 0.526420972, -8.0853475654, -0.108730494531, -0.0222766270371, -9.66335305924, 0.34396824875, 0.741775006, -8.30129980505
12.3557150364, -0.157485013758, 0.0970690446124, -9.89946738391, -0.1651047594, 0.76749784895, -10.1623175822, -0.0737508981028, 0.135294930584, -9.83007809597, 0.2656033086, 1.0947163395, -9.94397251995
12.4058899879, -0.124496936771, 0.0575320796191, -9.84457149302, -0.02691925425, -0.2225325018, -10.0157571979, -0.0534932012713, 0.0253385542474, -9.73859686018, -0.0466600407, -0.28893332895, -10.1509516748
12.4560770988, -0.0872155685209, -0.103977230788, -9.98579187268, 0.2739781877, 0.023928226, -11.653046062, -0.0717505040985, -0.0549791021584, -9.90644879903, 0.06161518195, 0.7262216591, -11.256435716
12.5062229633, -0.0327631172989, 0.0520725030594, -9.82640256491, 1.20418797345, 0.67298135625, -10.3537433902, 0.0294412118767, 0.0754200684097, -9.73413406924, 1.09651095645, 0.4103690759, -9.97388280245
12.5564138889, -0.164158205406, -0.0479001945969, -9.94601917077, -0.77587272805, -0.4019941968, -11.4777718065, -0.137596599996, -0.0192956756152, -9.88894212053, -0.9978070242, -0.2309073809, -10.7054883124
12.606703043, -0.101002907054, -0.066144253183, -9.79522157213, 0.79022966365, 0.0406779842, -10.1018988115, -0.0818961456242, -0.0475428244558, -9.7884601707, 0.23868405435, 0.05084748025, -10.4231352456
12.6569480896, -0.231496269341, -0.0750010329697, -9.77321470477, 0.54855458105, -0.1136590735, -9.30030324055, -0.102052665569, -0.0410370151381, -9.77208561682, 1.21136644125, 0.430708068, -10.0265248996
12.7071220875, -0.289945602227, -0.112089960886, -9.85420118975, -0.63828542855, -0.1351944769, -10.1898350421, -0.262226289865, -0.0533028555428, -9.83937376556, -1.31306140175, 0.92901337445, -9.9696953629
12.7573900223, -0.241893706859, -0.032468932741, -9.86538745666, 0.5455635528, -0.36191441825, -10.7730855508, -0.20325098914, -0.0253777506822, -9.85188911147, 0.7501498851, 0.27337998205, -10.8263258537
12.8076090813, -0.249833541111, 0.0823116447709, -9.90290764361, 0.54496534715, 0.10468598875, -11.3054885793, -0.163245758086, 0.0509187651431, -9.95096904265, 1.35134656335, 0.56889357315, -12.0526474362
12.8577539921, -0.260100866193, -0.0229039970646, -9.85622351112, -0.08793623055, -0.2440679052, -10.7246308932, -0.233984085909, -0.0733411482716, -9.89969502568, -0.5312066172, -0.06520441585, -11.6715904371
12.9080550671, -0.230957761707, -0.108194469573, -9.89609833156, 0.6592226263, -0.35832518435, -10.4931253066, -0.152187353707, -0.0890584399505, -9.99076731838, 0.91465643885, 0.6376872229, -11.6877419897
12.9582519531, -0.295548399565, -0.0529274019043, -9.953309842, -0.23509482045, -0.33559336965, -11.5011018269, -0.219885414603, -0.0201427534401, -9.89793042912, 0.07238288365, 0.3409772205, -10.2317094376
13.0084199905, -0.258354211308, -0.175309059694, -9.87540022934, 0.0801595571, -1.00917293155, -10.6163556705, -0.262741561984, -0.13629081123, -9.86437283488, -0.49351966125, -0.17886348935, -10.7342021836
13.0586431026, -0.274916869802, -0.206547843285, -9.90044502766, 0.03050848815, -0.50309095165, -9.8859465719, -0.244166882061, -0.170747580905, -9.87005660195, -0.08554340795, -0.14416756165, -10.4081801044
13.1088120937, -0.26674936333, -0.140164278018, -9.93980809248, 0.3661018578, 0.3361915753, -10.000203851, -0.22951792684, -0.0802594415353, -9.80972832872, -0.0191425808, -0.01974078645, -11.2265254335
13.1597349644, -0.296074364079, -0.0733799513106, -9.90812656641, -0.28534409505, 0.27816562725, -10.5649099846, -0.300358466493, -0.0494379103541, -9.82443662513, -0.562313311, 0.9714859756, -10.3423774828
13.2099189758, -0.247994594695, -0.0346073593281, -9.89115075254, 0.58803615395, -0.00179461695, -10.2089776229, -0.260889808876, -0.0146020768723, -9.85665344499, 0.22313070745, 0.5048855686, -10.7521483531
13.2601480484, -0.327039645142, 0.00892558118775, -9.80752931468, 0.38225341035, 0.3565305674, -9.59820965425, -0.295711357337, 0.0192513822606, -9.76884774247, 0.4809573426, 0.7142575461, -10.3005030873
13.3103189468, -0.386059573471, 0.0378806629701, -9.89116053433, -0.94935236655, -0.0227318147, -9.55035320225, -0.390890415856, 0.0557700553051, -9.78979792587, -0.8458627891, 0.2931207685, -9.4468636248
13.3605349064, -0.429628397386, -0.131409201111, -10.0117225783, 0.00418743955, -0.5324030285, -10.7647106717, -0.451266672333, -0.111501651669, -9.78005924824, -0.62392849295, 0.06879364975, -8.95454037485
13.4106891155, -0.529999959451, -0.117676870305, -9.87997873412, -0.7884350467, 0.51026941945, -10.3052887326, -0.553841384004, -0.0758447989585, -9.74144552108, -0.9068797654, 1.04985091575, -10.562517162
13.4608569145, -0.496935968555, -0.0505735976252, -9.83037093167, -0.00658026215, 0.58444692005, -8.61834879955, -0.5031980274, -0.00879722779287, -9.72189921488, -0.40139599115, 1.07617196435, -8.9790668065
13.5113890171, -0.563306719748, -0.0579846801169, -9.92742296984, -0.4474578262, -0.5527420206, -9.415756931, -0.501592678829, -0.0233361834072, -9.85899199923, 0.1256231865, 0.81894353485, -11.3772732573
13.5616431236, -0.560952634762, -0.102756806937, -9.81046347546, 0.04127618985, -0.50787659685, -9.14357336025, -0.488698612758, -0.0516298679332, -9.71831005268, 0.37746776515, -0.1304088317, -9.3822574146
13.6117930412, -0.595838176881, -0.173234168959, -9.92459005986, -0.41216369285, -0.42652062845, -10.4913306897, -0.539092442077, -0.0604653189164, -9.74116947248, -0.9116654106, 0.370887503, -8.8390866844
13.6620299816, -0.548631823249, -0.143425479479, -9.92388000941, 0.1782652837, 0.0203389921, -11.0446709159, -0.500200540963, -0.0235223136948, -9.79800665645, -0.0418743955, 0.59760744435, -10.8999051486
13.7122960091, -0.562139465533, -0.0615715419436, -9.77745634901, -0.7322037156, 0.3158525832, -8.7780697081, -0.595063062567, 0.0168162809012, -9.66360800527, -1.2215359373, 0.51385865335, -9.2446701151
13.762583971, -0.593443576109, -0.0783067788168, -9.85559105826, 0.0526420972, -0.1543370577, -9.5545406418, -0.556178822073, -0.00716551458751, -9.73786182933, 0.2667997199, 0.4151547211, -9.3643112451
13.8127651215, -0.611806164653, -0.0565845508716, -9.90592240471, -0.46959143525, -0.2452643165, -10.5003037744, -0.602466620068, 0.00735936824395, -9.81936277347, -0.39302111205, 0.27936203855, -10.239486111
13.8629601002, -0.538140160091, -0.043633204712, -9.89728562436, 0.0658026215, -0.0789631458, -11.0117696052, -0.56285765809, 0.0113757936301, -9.83381380625, -0.275174599, 0.46719861265, -11.0919291623
13.913216114, -0.562255379735, 0.0095573049743, -9.83829379719, -0.0646062102, 0.2069791549, -9.86620578545, -0.55440950412, 0.0490438692374, -9.79535361699, -0.16211373115, 0.5599204884, -10.1509516748
13.9634280205, -0.59234514543, -0.055706936073, -9.8387766851, -0.5252245607, -0.2679961312, -10.0289177222, -0.584514367105, -0.0258731964471, -9.81672531372, -0.5766702466, 0.23270199785, -10.2849497404
14.0138709545, -0.533736659814, -0.0982025208417, -9.82102719292, -0.2847458894, 0.12861421475, -9.7998049583, -0.49294043617, -0.0631896637922, -9.81050696589, -0.6400800455, 0.46360937875, -9.77408211535
14.064385891, -0.598659098404, -0.0868458818343, -9.85619831701, -0.1663011707, 0.0035892339, -10.2329058489, -0.570310010446, -0.0736278176978, -9.82777988175, -0.22073788485, 0.37268211995, -10.0881400816
14.1146569252, -0.591971623443, -0.0577361044818, -9.7835374954, -0.56769716185, 0.2943171798, -9.619146852, -0.575951399976, -0.0303195292087, -9.80204739952, -0.77587272805, 0.8279166196, -10.2861461517
14.1650619507, -0.587101595162, -0.0449803553168, -9.83182525805, 0.06520441585, -0.3206382284, -10.1964153042, -0.564475621597, -0.0366425525859, -9.80368942018, -0.27577280465, 0.11904292435, -10.2759766557
14.2152559757, -0.618520330986, -0.0742118899021, -9.81918916083, -0.2715853651, -0.06041877065, -9.83390268035, -0.566583469164, -0.0556356665281, -9.78974848579, -0.18245272325, 0.26979074815, -9.9792666533
14.2654280663, -0.613232076564, -0.10525443473, -9.79946395023, -0.4283152454, -0.24227328825, -9.53838908925, -0.565007320558, -0.0771335200151, -9.76594563286, -0.43848474145, 0.2380858487, -9.66640509835
14.3155579567, -0.579315106724, -0.110579252594, -9.83335538287, -0.06520441585, -0.1663011707, -10.2430753449, -0.536804759998, -0.108981714223, -9.81038242171, -0.2572284295, 0.21236300575, -10.3998052252
14.365694046, -0.603680988009, -0.100252768491, -9.81606690157, -0.2213360905, -0.10588240005, -10.1234342149, -0.565468741171, -0.0779787040618, -9.79276584319, -0.2763710103, 0.45523449965, -10.2837533291
14.4158349037, -0.603033936588, -0.0754509752299, -9.80685781756, -0.41814574935, 0.0526420972, -9.7112705221, -0.570959791547, -0.0641495973058, -9.77423681453, -0.56530433925, 0.4103690759, -9.8680004024
14.4659769535, -0.558582156713, -0.133987451183, -9.81923553043, 0.0011964113, -0.275174599, -9.89970530185, -0.532048092146, -0.0943304097539, -9.78824960358, -0.2799602442, 0.1447657673, -10.1084790737
14.5161390305, -0.599027489653, -0.0959614035574, -9.83997533897, -0.44685962055, 0.0311066938, -10.1090772793, -0.578249390575, -0.0651125650086, -9.81017943744, -0.53539405675, 0.538385085, -10.2526466354
14.5663819313, -0.55474457993, -0.072651086211, -9.81173887566, -0.07238288365, -0.00658026215, -9.76929647015, -0.529529305056, -0.0373923078035, -9.77312234552, -0.25902304645, 0.4091726646, -9.91166941485
14.6165549755, -0.57149827999, -0.116976833903, -9.82475294528, -0.1746760498, -0.29970103065, -9.81834933345, -0.544337609431, -0.0711041047693, -9.78441382431, -0.25064816735, 0.19322042495, -9.98704332675
14.6667380333, -0.582857489666, -0.135120606739, -9.82299812326, -0.28414768375, -0.0741775006, -9.76929647015, -0.556698367506, -0.0931113096964, -9.78934979742, -0.394815729, 0.3014956476, -9.9326066126
14.7168900967, -0.574171321131, -0.107678118033, -9.83282682799, -0.15373885205, 0.06640082715, -9.93679405215, -0.548361654746, -0.062366369351, -9.7981912268, -0.3254238736, 0.49351966125, -10.0307123392
14.7671399117, -0.595010926841, -0.0954830047207, -9.82912087319, -0.3134597606, -0.08913264185, -9.9361958465, -0.570203984993, -0.0554074886294, -9.79508345213, -0.4199403663, 0.3122633493, -10.1180503641
14.8173480034, -0.614979671518, -0.118261176022, -9.82672611165, -0.3792623821, -0.14895320685, -9.8392865312, -0.593432929346, -0.0773709671407, -9.79085816269, -0.5168496816, 0.3242274623, -9.98345409285
14.8675251007, -0.631941673101, -0.0893980478548, -9.8273964831, -0.2859423007, 0.0897308475, -9.85424167245, -0.605941902587, -0.048762183542, -9.7930313687, -0.4043870194, 0.5599204884, -9.9876415324
14.9176950455, -0.649271499516, -0.0727724574504, -9.82946826008, -0.3445664544, -0.02811566555, -9.9768738307, -0.620133279306, -0.034782563927, -9.79287618717, -0.42891345105, 0.3972085516, -10.121639598
14.9678809643, -0.641349980061, -0.110003495838, -9.81969081905, -0.23868405435, -0.18843477975, -9.8297152408, -0.590312723251, -0.0707084815157, -9.77998525384, -0.1710868159, 0.2584248408, -9.9852487098
15.0180621147, -0.555454496083, -0.112679231594, -9.82778499926, 0.30209385325, -0.04007977855, -9.8727860476, -0.501202410321, -0.0865072359233, -9.7845281771, 0.2057827436, 0.35114671655, -9.95593663295
15.0682659149, -0.45836169416, -0.0821666028958, -9.82257458009, 0.29730820805, 0.18604195715, -9.91286582615, -0.409132718986, -0.0480858592403, -9.78812419615, 0.2297109696, 0.67058853365, -10.0713903234
15.1184430122, -0.335485198841, -0.0261293258166, -9.82476092308, 0.58564333135, 0.28175486115, -9.77288570405, -0.288213277299, 0.00838741131983, -9.77617754323, 0.46002014485, 0.63230337205, -9.8560362894
15.1709759235, -0.221736272181, -0.0568772146582, -9.83467612772, 0.4510470601, -0.29611179675, -9.90927659225, -0.184684743649, -0.0392561139359, -9.78534056436, 0.32961131315, 0.1483550012, -9.9840522985
15.2211809158, -0.183038050144, -0.089056338243, -9.83580620351, 0.1854437515, -0.0191425808, -9.9433743143, -0.154383549455, -0.0689704948552, -9.78889179121, 0.06520441585, 0.41216369285, -10.0372926013
15.2713429928, -0.179166995107, -0.0585455169068, -9.8299152255, 0.17766707805, 0.13938191645, -9.90568735835, -0.150067876136, -0.0417415212162, -9.78567666708, 0.06281159325, 0.5252245607, -10.0492567143
15.3215019703, -0.188757007676, -0.0499301397518, -9.83106372058, 0.2213360905, -0.0933200814, -9.8991070962, -0.154564414695, -0.0438678881577, -9.78630909199, 0.11425727915, 0.25663022385, -10.03609619
15.3716900349, -0.179827265192, -0.059347827037, -9.83325826418, 0.203389921, -0.0789631458, -9.90808018095, -0.148682970516, -0.0573904796388, -9.78896853156, 0.1028913718, 0.3134597606, -10.0061859075
15.4219360352, -0.15598200288, -0.0679392648345, -9.83568788866, 0.3409772205, -0.11066804525, -9.9840522985, -0.125207127999, -0.0534664042229, -9.78326823742, 0.21355941705, 0.43369909625, -10.0175518149
15.4722208977, -0.138658922207, -0.0554573439159, -9.83418206133, 0.2907279459, 0.00538385085, -9.9397850804, -0.10887860398, -0.0466647769561, -9.78238784232, 0.13818550515, 0.44566320925, -10.0456674804
15.5224149227, -0.139702452256, -0.0401658289524, -9.83535939418, 0.18484554585, 0.0311066938, -9.8979106849, -0.111366396899, -0.033927134559, -9.77841644366, 0.06400800455, 0.4366901245, -9.9792666533
15.572633028, -0.136467949063, -0.0468983544059, -9.8384845203, 0.26979074815, -0.0610169763, -9.9158568544, -0.103786290537, -0.0359925011723, -9.78204308338, 0.167497582, 0.3613162126, -10.0283195166
15.6228179932, -0.131587716549, -0.0938738781282, -9.83932668953, 0.2644068973, -0.23988046565, -9.96072227815, -0.0975561354201, -0.0631151481183, -9.78915293375, 0.14656038425, 0.3565305674, -10.0695957064
15.6730370522, -0.125605878629, -0.0781326763568, -9.83331716837, 0.25184457865, 0.0299102825, -9.89611606795, -0.0948013755313, -0.0430884238763, -9.78558908971, 0.11964113, 0.54616175845, -10.0301141335
15.7232170105, -0.124397283479, -0.04926241262, -9.83479518315, 0.25782663515, 0.0155533469, -9.8907322171, -0.0870478055948, -0.0239389034956, -9.77857505524, 0.1531406464, 0.36430724085, -9.98943614935
15.7733840942, -0.12898203074, -0.0672895241772, -9.83724385996, 0.2201396792, -0.1411765334, -9.91286582615, -0.0927921237883, -0.0426777135659, -9.78137594525, 0.10468598875, 0.3050848815, -10.0348997787
15.8236479759, -0.119801466314, -0.0763456067383, -9.83916163032, 0.2297109696, -0.02572284295, -9.9194460883, -0.0911505610588, -0.0459142812626, -9.78257745474, 0.09870393225, 0.41096728155, -10.0588280047
15.8738040924, -0.114084937294, -0.0675060642615, -9.83665306319, 0.27696921595, -0.01495514125, -9.88774118885, -0.0902230300616, -0.0407848395592, -9.78039455696, 0.1339980656, 0.4331008906, -10.0055877019
15.9240500927, -0.114533314757, -0.0617996745848, -9.83998702849, 0.22671994135, -0.01495514125, -9.91286582615, -0.0925764172774, -0.0345243078915, -9.77866828415, 0.11964113, 0.4175475437, -9.9936235889
15.9742848873, -0.114082113228, -0.0662214697633, -9.83850656351, 0.2344966148, -0.0251246373, -9.9026963301, -0.085861304741, -0.0380508065951, -9.77903806561, 0.14297115035, 0.3924229064, -10.0169536092
16.0245039463, -0.114124247421, -0.0722865759168, -9.83336473102, 0.27816562725, -0.0909272588, -9.90808018095, -0.0854960602632, -0.0496577050406, -9.77618168905, 0.1351944769, 0.33559336965, -10.0055877019
16.0746669769, -0.113353195072, -0.0689934376095, -9.83201948618, 0.25064816735, 0.0023928226, -9.8907322171, -0.0896058101948, -0.0501412789117, -9.77803471003, 0.1148554848, 0.4163511324, -10.0025966737
16.1248281002, -0.112325448302, -0.0617063407362, -9.83190880426, 0.2536391956, -0.01974078645, -9.8895358058, -0.0879249219743, -0.041923562072, -9.77867106621, 0.14177473905, 0.45164526575, -10.0235338714
16.1749379635, -0.112539577615, -0.0669346859666, -9.83252541437, 0.25902304645, -0.1280160091, -9.92363352785, -0.0881712645095, -0.047477965385, -9.78230928761, 0.13818550515, 0.3218346397, -10.0343015731
16.2251429558, -0.1142327204, -0.0696519167009, -9.83421491801, 0.23928226, -0.0550349198, -9.9230353222, -0.0913033208527, -0.0537044697604, -9.78282141056, 0.11306086785, 0.33918260355, -10.0546405652
16.2753300667, -0.112810545671, -0.0689695223627, -9.83296925727, 0.26021945775, -0.035892339, -9.86620578545, -0.0887256281832, -0.0463590992929, -9.7831046249, 0.14536397295, 0.42053857195, -10.0199446375
16.3255360126, -0.115341071117, -0.0629531703578, -9.83441174533, 0.23928226, -0.04725824635, -9.89013401145, -0.0918100155903, -0.0471671035428, -9.78662470233, 0.1304088317, 0.3936193177, -10.0193464318
16.3757069111, -0.114043304915, -0.0587997670203, -9.83064613395, 0.2536391956, -0.0083748791, -9.8871429832, -0.0935388445047, -0.0461126883427, -9.79191610136, 0.1088734283, 0.3840480273, -10.0492567143
16.4259340763, -0.114670659186, -0.0682512887757, -9.83192317312, 0.23629123175, -0.10707881135, -9.91884788265, -0.0915435744316, -0.0432660326115, -9.79445405194, 0.1423729447, 0.394815729, -10.0468638917
16.4761300087, -0.113272953104, -0.0670932387373, -9.83278193767, 0.26021945775, -0.0693918554, -9.8931250397, -0.0891355876161, -0.0439936987193, -9.78986504928, 0.14536397295, 0.3876372612, -9.9960164115
16.5262959003, -0.117779064379, -0.0603028066812, -9.83134936551, 0.2380858487, -0.0299102825, -9.8931250397, -0.0882456639292, -0.0324718334157, -9.78798595141, 0.1280160091, 0.4271188341, -10.037890807
16.576513052, -0.11949963634, -0.0581066121718, -9.83172492991, 0.23389840915, -0.01375872995, -9.9146604431, -0.0873556065277, -0.0403830018477, -9.78750923908, 0.12622139215, 0.34277183745, -10.025926694
16.6266760826, -0.116728682864, -0.0566408892045, -9.83037780975, 0.2608176634, -0.0442672181, -9.88056272105, -0.0864676985788, -0.042867358042, -9.79116428081, 0.13459627125, 0.3852444386, -10.0343015731
16.6768460274, -0.116644838386, -0.0623548191546, -9.82999280482, 0.23509482045, -0.0729810893, -9.8955178623, -0.0910839514098, -0.0435810414706, -9.79144759478, 0.10468598875, 0.3696910917, -10.0223374601
16.7270550728, -0.113035546911, -0.0659422245833, -9.82915452985, 0.26620151425, -0.0873380249, -9.91286582615, -0.0911800437945, -0.0408689939726, -9.79106690932, 0.1244267752, 0.40259240245, -10.0366943957
16.7773089409, -0.116128427308, -0.0639526525605, -9.83215244437, 0.23509482045, -0.0610169763, -9.9218389109, -0.0912291937857, -0.0408533501328, -9.79001006403, 0.131605243, 0.35234312785, -10.0175518149
16.8275160789, -0.115554443679, -0.0637608948155, -9.83100553285, 0.2416750826, -0.05204389155, -9.88534836625, -0.0894671808299, -0.039676513594, -9.7888735957, 0.1351944769, 0.4031906081, -10.03609619
16.8777480125, -0.11792501172, -0.0708976979156, -9.83056706315, 0.23270199785, -0.059820565, -9.89133042275, -0.0893739489352, -0.0440054318872, -9.78762404325, 0.12023933565, 0.39182470075, -10.0408818352
16.9279050827, -0.120383176474, -0.0620006836635, -9.82752255749, 0.25543381255, -0.03649054465, -9.89372324535, -0.0897348835552, -0.0395631417911, -9.7882043027, 0.13698909385, 0.39182470075, -10.0163554036
16.9780879021, -0.122183244562, -0.0689335417974, -9.82781763779, 0.2356930261, -0.09750752095, -9.89850889055, -0.0910504099287, -0.0493213798028, -9.78805699113, 0.11964113, 0.3302095188, -10.0522477426
17.0283300877, -0.121777158262, -0.0708376120413, -9.82817964334, 0.24825534475, -0.0705882667, -9.8847501606, -0.0904282098249, -0.0590318945001, -9.79230596527, 0.1328016543, 0.346959277, -10.0444710691
17.0785160065, -0.122181761132, -0.0659817782984, -9.82933093459, 0.21954147355, -0.02333002035, -9.92124070525, -0.0907505880712, -0.0604968501051, -9.79229459245, 0.12502498085, 0.39661034595, -10.0414800409
17.1287438869, -0.118328031962, -0.0629338973287, -9.82954563373, 0.25543381255, -0.03649054465, -9.8979106849, -0.0936976578191, -0.0552946278031, -9.79319465306, 0.1148554848, 0.3840480273, -10.0408818352
17.1789369583, -0.117812769578, -0.0630475187565, -9.83347365128, 0.2500499617, -0.08913264185, -9.9134640318, -0.0924938462196, -0.0482751193677, -9.79373327392, 0.1208375413, 0.4103690759, -10.03609619
17.2291250229, -0.118432221213, -0.0623039075977, -9.8343369278, 0.2464607278, -0.03888336725, -9.90688376965, -0.0915683194713, -0.0488287263369, -9.78920345235, 0.11904292435, 0.39062828945, -10.025926694
17.2792880535, -0.116890318312, -0.0627599412641, -9.83566301455, 0.2524427843, -0.0454636294, -9.92363352785, -0.0931250091865, -0.058856399258, -9.78864980927, 0.1124626622, 0.36789647475, -10.0426764522
17.3294389248, -0.114131694126, -0.0592055647654, -9.83736056186, 0.2572284295, -0.03768695595, -9.9134640318, -0.0910147554176, -0.053224087611, -9.78829821032, 0.15014961815, 0.4043870194, -10.0348997787
17.3796329498, -0.112782552897, -0.0593654045035, -9.83527196447, 0.2548356069, -0.0454636294, -9.90090171315, -0.0892456292997, -0.0518922256869, -9.78620085205, 0.1292124204, 0.37746776515, -10.0151589923
17.4298460484, -0.113723647711, -0.0567550928143, -9.83701390101, 0.2560320182, -0.0083748791, -9.88893760015, -0.0864547103188, -0.0435990573894, -9.78202542046, 0.1519442351, 0.39900316855, -10.0097751414
17.4800229073, -0.115383392217, -0.0564685930712, -9.83886358142, 0.24346969955, -0.0658026215, -9.91286582615, -0.0839918018609, -0.0468700885937, -9.78259030382, 0.12861421475, 0.3744767369, -10.0289177222
17.5301840305, -0.11598586103, -0.0505622132247, -9.83890017908, 0.24586252215, 0.0155533469, -9.92124070525, -0.0847654123318, -0.0509149798634, -9.78138003992, 0.12143574695, 0.3696910917, -10.0169536092
17.5804209709, -0.112923471117, -0.0580885827912, -9.83568573493, 0.2608176634, -0.04127618985, -9.89850889055, -0.0866659883172, -0.047115657024, -9.78389170654, 0.11545369045, 0.40139599115, -10.0510513313
17.6305999756, -0.116144231575, -0.0529254510182, -9.83388557587, 0.22911276395, -0.02452643165, -9.90329453575, -0.0843815165479, -0.0449818432801, -9.78593208348, 0.14057832775, 0.39541393465, -10.0343015731
17.6807699203, -0.117820381004, -0.0432081853268, -9.83439778715, 0.2333002035, -0.04725824635, -9.90808018095, -0.0840722688366, -0.0380262906582, -9.78592579876, 0.12502498085, 0.39541393465, -10.0319087505
17.7309250832, -0.1166736798, -0.0450017438807, -9.83283622461, 0.23988046565, -0.0394815729, -9.8919286284, -0.0866252075321, -0.0378890881656, -9.78036693374, 0.1088734283, 0.3852444386, -10.0061859075
17.7811570168, -0.114644034115, -0.0580489605509, -9.83019671683, 0.2476571391, -0.0873380249, -9.89611606795, -0.0859789067235, -0.0416564737025, -9.78308017104, 0.12861421475, 0.3864408499, -10.0426764522
17.8313369751, -0.114387154759, -0.0518156087955, -9.83142805046, 0.25782663515, -0.0418743955, -9.8967142736, -0.088259499424, -0.0344990050175, -9.78266410203, 0.12263215825, 0.394815729, -10.0283195166
17.8815360069, -0.114760164733, -0.0541930998518, -9.83107081794, 0.23928226, -0.04606183505, -9.8967142736, -0.0895801741835, -0.0323639895977, -9.78557939957, 0.10947163395, 0.42053857195, -10.0432746578
17.9316968918, -0.113264036772, -0.0577953183726, -9.82896776131, 0.2596212521, -0.0945164927, -9.9110712092, -0.0868403550027, -0.0362593841137, -9.78392372631, 0.1399801221, 0.40977087025, -10.0043912906
17.9818680286, -0.113358404881, -0.0592267189912, -9.83040891152, 0.24825534475, -0.05204389155, -9.9134640318, -0.0862416316296, -0.0395818786754, -9.78345851551, 0.1304088317, 0.34157542615, -10.0193464318
18.0320880413, -0.115494176136, -0.0641921128523, -9.82984451762, 0.2333002035, -0.0634097989, -9.8835537493, -0.089333538378, -0.0405429336241, -9.78956086202, 0.12143574695, 0.35892339, -10.0809616138
18.0822339058, -0.115961046304, -0.0619099214654, -9.83110968205, 0.251246373, -0.0370887503, -9.88893760015, -0.0900248660761, -0.0435833503683, -9.78803398964, 0.11904292435, 0.3996013742, -10.0277213109
18.1323919296, -0.118625423606, -0.0656503937864, -9.83335701244, 0.2368894374, -0.1112662509, -9.9003035075, -0.0923814868661, -0.0425084866885, -9.7880455263, 0.11306086785, 0.406779842, -10.0055877019
18.182600975, -0.118522175608, -0.062545834744, -9.83230426403, 0.2440679052, -0.02452643165, -9.9014999188, -0.077036624004, -0.0369433937277, -9.78636108344, 0.1471585899, 0.40139599115, -10.0031948793
18.2327930927, -0.115821697154, -0.0635327171868, -9.83217123168, 0.2452643165, -0.0658026215, -9.89491965665, -0.0908943181778, -0.0389911891954, -9.7909141151, 0.1375872995, 0.3864408499, -10.0450692748
18.282957077, -0.113565213813, -0.0622422820323, -9.8322410901, 0.25423740125, -0.0311066938, -9.8835537493, -0.0911580461195, -0.0408122322077, -9.78617217664, 0.1112662509, 0.38105699905, -10.0103733471
18.3331329823, -0.110265876407, -0.0657314283842, -9.83540834479, 0.2667997199, -0.05922235935, -9.9038927414, -0.0886617941578, -0.0417070175673, -9.7886542402, 0.1292124204, 0.3852444386, -10.0450692748
18.3833401203, -0.110504550264, -0.069725405506, -9.8362394912, 0.25423740125, -0.07597211755, -9.8859465719, -0.0888639778003, -0.0434568923534, -9.783398584, 0.13339985995, 0.394815729, -10.0319087505
18.4335091114, -0.109994117781, -0.0637110000663, -9.8393888247, 0.2560320182, 0.0059820565, -9.9242317335, -0.0880777768538, -0.0453805987492, -9.78376954325, 0.1363908882, 0.36670006345, -10.0396854239
18.4837489128, -0.108133009797, -0.0590845959767, -9.83941535698, 0.2715853651, -0.02931207685, -9.90329453575, -0.0860830272615, -0.0466636263309, -9.78211388777, 0.14297115035, 0.3780659708, -10.0325069561
18.533946991, -0.112334936279, -0.0454357882333, -9.83703099098, 0.23928226, -0.03529413335, -9.88295554365, -0.0866723915893, -0.0441157224367, -9.7839481171, 0.1328016543, 0.39900316855, -10.0408818352
18.5841419697, -0.115502654478, -0.0523036121585, -9.83505885056, 0.2356930261, -0.05084748025, -9.906285564, -0.0858120633898, -0.0485403739202, -9.78463939107, 0.13698909385, 0.3732803256, -10.0283195166
18.6343100071, -0.117745475168, -0.0577289622384, -9.83790608481, 0.25184457865, -0.02093719775, -9.93081199565, -0.0847084177062, -0.0532370041309, -9.78547449759, 0.1399801221, 0.37507494255, -10.0127661697
18.6844830513, -0.117072233092, -0.0673899143269, -9.83924538906, 0.24825534475, -0.08554340795, -9.90808018095, -0.0875038015407, -0.0496297490725, -9.78790248887, 0.14057832775, 0.42532421715, -10.0540423596
18.7347071171, -0.116635975359, -0.0651811679643, -9.83910774831, 0.24227328825, -0.03409772205, -9.9110712092, -0.087652006468, -0.0544783213942, -9.78850644048, 0.13339985995, 0.36071800695, -10.0301141335
18.7849369049, -0.114978518278, -0.0702295739901, -9.83672307784, 0.2596212521, -0.09870393225, -9.90449094705, -0.0891419433976, -0.0519270977853, -9.7877274453, 0.1256231865, 0.42173498325, -10.0109715527
18.8350920677, -0.114976756579, -0.063193382787, -9.83492355371, 0.251246373, -0.0418743955, -9.9158568544, -0.0885571767924, -0.0559747308935, -9.78278157467, 0.14416756165, 0.36670006345, -10.0151589923
18.8852651119, -0.113473035541, -0.059795934659, -9.83342361105, 0.24346969955, 0.0083748791, -9.88654477755, -0.0879249809413, -0.0557952225657, -9.78231263666, 0.15373885205, 0.3768695595, -10.0193464318
18.9354929924, -0.114534185026, -0.0581925565233, -9.8332674815, 0.2309073809, -0.04725824635, -9.89013401145, -0.087233440607, -0.0508522115072, -9.78051504947, 0.1232303639, 0.38823546685, -10.0229356657
18.9857869148, -0.112603385082, -0.0623781214326, -9.83479724658, 0.26021945775, -0.0658026215, -9.9290173787, -0.0862243025649, -0.0517215460268, -9.78496601461, 0.12741780345, 0.3744767369, -10.0438728635
19.0364949703, -0.111574532854, -0.0543678739314, -9.83710794405, 0.2572284295, 0.00059820565, -9.91525864875, -0.0872198000041, -0.0551317990962, -9.78530835458, 0.1375872995, 0.3517449222, -10.0343015731
19.0869739056, -0.11191977737, -0.0523420681678, -9.83401668296, 0.2667997199, -0.01615155255, -9.90209812445, -0.0857178478759, -0.0635464539979, -9.79137060452, 0.1339980656, 0.3373879866, -10.0468638917
19.1388189793, -0.112982925139, -0.0511200288909, -9.83231217619, 0.2548356069, -0.05682953675, -9.9026963301, -0.08786241365, -0.0635195453093, -9.78938939196, 0.107677017, 0.3792623821, -10.025926694
19.1890180111, -0.114083357092, -0.0522956815296, -9.82929244222, 0.24705893345, -0.0418743955, -9.8895358058, -0.0872485637225, -0.057126859099, -9.78730006321, 0.143569356, 0.42412780585, -10.0313105448
19.2391879559, -0.115717405034, -0.0478822860523, -9.83108648147, 0.2416750826, -0.00658026215, -9.91286582615, -0.0853003318852, -0.0524086238075, -9.78085246505, 0.14057832775, 0.4019941968, -10.0235338714
19.2895309925, -0.115227497693, -0.0457309345969, -9.83219394828, 0.2464607278, -0.01375872995, -9.9074819753, -0.089169291235, -0.0491200340616, -9.78391456575, 0.1100698396, 0.41096728155, -10.0558369765
19.3397500515, -0.118176808283, -0.0520319833324, -9.83470736301, 0.23150558655, -0.0693918554, -9.9110712092, -0.0871701336771, -0.0473331641476, -9.781306672, 0.12981062605, 0.3613162126, -10.0169536092
19.3899691105, -0.118248528043, -0.0575388531718, -9.83566524741, 0.24586252215, -0.0993021379, -9.91286582615, -0.0882730619169, -0.0487835893886, -9.78290660039, 0.11425727915, 0.334995164, -10.0313105448
19.440144062, -0.115423269816, -0.0590682100566, -9.83014202828, 0.25423740125, -0.0538385085, -9.86979501935, -0.0872761039372, -0.0496234386698, -9.78693036014, 0.14177473905, 0.3577269787, -10.0564351822
19.4903099537, -0.113117529828, -0.0670908515406, -9.82772776213, 0.2596212521, -0.0861416136, -9.89731247925, -0.0916583975635, -0.0490443142026, -9.78678754052, 0.10827522265, 0.40618163635, -10.0097751414
19.540471077, -0.114473543546, -0.0728830981394, -9.82685922693, 0.2404786713, -0.05324030285, -9.8991070962, -0.0928417564789, -0.0546083068561, -9.78589844621, 0.10707881135, 0.3756731482, -10.0319087505
19.5907289982, -0.118838117506, -0.0727592624019, -9.83075591486, 0.22073788485, -0.0454636294, -9.9122676205, -0.0923526195274, -0.0530014791624, -9.7852500645, 0.11186445655, 0.3840480273, -10.0283195166
19.6409521103, -0.119448032273, -0.0691591625677, -9.82895175638, 0.23030917525, -0.0287138712, -9.882357338, -0.0923322568397, -0.0530538655326, -9.78288084906, 0.12023933565, 0.382851616, -10.0199446375
19.6911609173, -0.120660074526, -0.0680678987689, -9.83024946693, 0.2368894374, -0.04486542375, -9.9074819753, -0.0927415203907, -0.0563904395909, -9.7875376175, 0.12861421475, 0.39302111205, -10.0277213109
19.7413299084, -0.118961881204, -0.0649369647026, -9.83086411219, 0.25184457865, -0.05563312545, -9.9026963301, -0.0933886472689, -0.0473343841308, -9.78774767902, 0.1280160091, 0.4378865358, -10.0426764522
19.7915608883, -0.117496600001, -0.0628054450961, -9.83023715838, 0.25543381255, -0.02213360905, -9.8751788702, -0.0895114520488, -0.04441767633, -9.78607197069, 0.14416756165, 0.4163511324, -10.0199446375
19.8418130875, -0.11490393895, -0.0691367443203, -9.83004637479, 0.26141586905, -0.05802594805, -9.8907322171, -0.0895653420915, -0.0485217460878, -9.78710746954, 0.1208375413, 0.34037901485, -10.0223374601
19.8920450211, -0.113931161487, -0.0647853451182, -9.82650528845, 0.2464607278, -0.023928226, -9.8859465719, -0.0896835815638, -0.0494681000984, -9.78899661431, 0.12861421475, 0.36909288605, -10.0654082669
19.9422221184, -0.115730790839, -0.0564912047553, -9.82571947183, 0.23988046565, 0.03170489945, -9.90568735835, -0.0887715661847, -0.0503753002092, -9.78656316936, 0.13339985995, 0.3649054465, -10.0163554036
19.9924769402, -0.11473584745, -0.0657869163118, -9.82733819567, 0.25902304645, -0.09990034355, -9.88893760015, -0.0897496839431, -0.0566674627875, -9.79122019756, 0.11784651305, 0.33678978095, -10.0277213109
20.042746067, -0.11718418204, -0.0591270046545, -9.82939113699, 0.2404786713, 0.0107677017, -9.9146604431, -0.0904043720279, -0.0525696936354, -9.79116985629, 0.1208375413, 0.4055834307, -10.0277213109
20.0929639339, -0.115996051103, -0.0581468693225, -9.82985852908, 0.24227328825, -0.04725824635, -9.89970530185, -0.088696230685, -0.050466510619, -9.79378800533, 0.1447657673, 0.4103690759, -10.0486585087
20.1431601048, -0.11493874415, -0.0601110523367, -9.8321265256, 0.23868405435, -0.04965106895, -9.9194460883, -0.0882948430238, -0.0481032536334, -9.79106632997, 0.1387837108, 0.39302111205, -10.0247302827
20.1951780319, -0.114686345371, -0.0647978419252, -9.82929051257, 0.25423740125, -0.06400800455, -9.87338425325, -0.0860463197377, -0.0492306163377, -9.78922180483, 0.1423729447, 0.4091726646, -10.0211410488
20.2453770638, -0.114918760339, -0.0617834830584, -9.83126563445, 0.2476571391, -0.0227318147, -9.91166941485, -0.085532263337, -0.048220823831, -9.79165086001, 0.12502498085, 0.3672982691, -10.0438728635
20.2956130505, -0.115382191061, -0.0623568088523, -9.8307837275, 0.2309073809, -0.04965106895, -9.8919286284, -0.086330235122, -0.0454706876511, -9.79403713866, 0.1220339526, 0.4259224228, -10.0319087505
20.3458080292, -0.116135441203, -0.0568780649606, -9.83046335849, 0.2428714939, -0.0311066938, -9.882357338, -0.0873933840271, -0.0423493598698, -9.79084555005, 0.11964113, 0.39661034595, -10.0337033674
20.3960471153, -0.116870195307, -0.0502837156921, -9.83034923801, 0.22911276395, 0.01734796385, -9.90808018095, -0.0880231866325, -0.04582946015, -9.78858124623, 0.11425727915, 0.38823546685, -10.0037930849
20.4465069771, -0.114342827121, -0.0505808688977, -9.83399846182, 0.2560320182, -0.03170489945, -9.9170532657, -0.0890726106819, -0.0488119047894, -9.78524287972, 0.1268195978, 0.4031906081, -10.001998468
20.4966619015, -0.114766133743, -0.0533843863427, -9.83462443704, 0.2404786713, -0.04366901245, -9.90927659225, -0.0885219440868, -0.0449504597919, -9.78425245523, 0.13579268255, 0.3696910917, -10.0193464318
20.5468571186, -0.112011558109, -0.0519953950129, -9.83727659745, 0.251246373, -0.03649054465, -9.91166941485, -0.0912667141551, -0.0491503761774, -9.78569855859, 0.1268195978, 0.3876372612, -10.0438728635
20.5970170498, -0.115121077031, -0.057628857763, -9.83643625693, 0.2261217357, -0.09511469835, -9.8895358058, -0.0932543038111, -0.0498906256862, -9.78910211544, 0.13100703735, 0.38225341035, -10.0689975008
20.6472840309, -0.115809278068, -0.0551690282595, -9.83411051558, 0.24227328825, -0.04965106895, -9.9026963301, -0.0920167925385, -0.0512798592463, -9.7904950876, 0.1304088317, 0.36789647475, -10.0402836296
20.6975009441, -0.116366628073, -0.0513845337129, -9.8315336512, 0.24227328825, -0.00897308475, -9.8751788702, -0.0925169506215, -0.0536951165243, -9.78941553891, 0.11545369045, 0.3792623821, -10.0438728635
20.7480959892, -0.116124255858, -0.0532875977804, -9.83122813922, 0.2416750826, -0.01734796385, -9.9038927414, -0.0906358870534, -0.0513226121232, -9.7891696977, 0.13339985995, 0.41336010415, -10.0169536092
20.7983019352, -0.114964823268, -0.0581192107501, -9.82985006583, 0.2464607278, -0.0502492746, -9.8931250397, -0.0917682586493, -0.0515962982938, -9.7894132385, 0.12622139215, 0.39302111205, -10.0235338714
20.8484489918, -0.114988793966, -0.0536100817036, -9.83007380705, 0.2416750826, -0.05324030285, -9.88175913235, -0.0924761076644, -0.0551380254494, -9.78888667771, 0.12023933565, 0.3732803256, -10.0157571979
20.8986151218, -0.117887937781, -0.0521790695118, -9.83089936628, 0.24945175605, -0.04486542375, -9.8883393945, -0.0930456099789, -0.0554931629039, -9.78649086375, 0.1268195978, 0.3732803256, -10.0205428432
20.9488179684, -0.116154123365, -0.0567786306716, -9.83319692188, 0.2703889538, -0.02213360905, -9.9206424996, -0.0929245207044, -0.0520552008542, -9.78242782752, 0.11964113, 0.4319044793, -10.0157571979
20.9990179539, -0.119205259731, -0.0623882473177, -9.83233085241, 0.2285145583, -0.0622133876, -9.88295554365, -0.0916610367204, -0.0545941393091, -9.78079292982, 0.13698909385, 0.3601198013, -10.0109715527
21.0492949486, -0.118483368066, -0.0555844513114, -9.82988782944, 0.2572284295, -0.0287138712, -9.8991070962, -0.0920243524555, -0.0501066522164, -9.7792063202, 0.1244267752, 0.3924229064, -10.0097751414
21.0995941162, -0.120174066431, -0.0585314479593, -9.83244414828, 0.24705893345, -0.05324030285, -9.9158568544, -0.0926923522056, -0.0518689608295, -9.7804263063, 0.13459627125, 0.3672982691, -10.0331051618
21.1514699459, -0.118304990397, -0.0559300366011, -9.83119395656, 0.2620140747, -0.03649054465, -9.8967142736, -0.0915257193991, -0.0495144129029, -9.78166110114, 0.12861421475, 0.39780675725, -10.0049894962
21.2018909454, -0.118884758584, -0.0561738416054, -9.83153324604, 0.2536391956, -0.0394815729, -9.9134640318, -0.0903953030742, -0.0510648577393, -9.7783781325, 0.11964113, 0.3493520996, -10.0199446375
21.2529969215, -0.116614833938, -0.0599104658502, -9.83403069603, 0.26021945775, -0.07118647235, -9.9206424996, -0.0905434587271, -0.0533696864324, -9.77904847936, 0.12143574695, 0.3996013742, -10.0235338714
21.3031880856, -0.118430986497, -0.0615036731852, -9.83306530178, 0.2464607278, -0.05682953675, -9.89611606795, -0.0907901011735, -0.0565086672202, -9.78123299781, 0.11964113, 0.37986058775, -10.0307123392
21.3535270691, -0.121285631526, -0.0571994993693, -9.8345685016, 0.24945175605, -0.0215354034, -9.90688376965, -0.0900625722812, -0.0603340374391, -9.78540385554, 0.13100703735, 0.35952159565, -10.0283195166
21.403742075, -0.120682926079, -0.0571004114872, -9.83377011683, 0.227318147, -0.0406779842, -9.91765147135, -0.0893836335473, -0.0610730213657, -9.78446061238, 0.1459621786, 0.35832518435, -10.0325069561
21.4539740086, -0.120021255029, -0.0612674104176, -9.83555214011, 0.24466611085, -0.0669990328, -9.91286582615, -0.0897070734218, -0.0545350049417, -9.7848690685, 0.12861421475, 0.38823546685, -10.0313105448
21.5041639805, -0.118905041997, -0.0613525484763, -9.83619996545, 0.2739781877, -0.0825523797, -9.8751788702, -0.0909979734382, -0.0577456959813, -9.78701248107, 0.1256231865, 0.38464623295, -10.0014002623
21.5543599129, -0.117955244267, -0.0654995026899, -9.83147221339, 0.23748764305, -0.0813559684, -9.8931250397, -0.0893676501674, -0.0525217697024, -9.78200433373, 0.1375872995, 0.42173498325, -10.0229356657
21.6045889854, -0.120013229553, -0.0630218186058, -9.83130399778, 0.23988046565, -0.035892339, -9.9110712092, -0.0899633194266, -0.046370205399, -9.78185655113, 0.1339980656, 0.43130627365, -10.025926694
21.6548550129, -0.1207330042, -0.0645215840845, -9.82994353242, 0.23270199785, -0.05084748025, -9.8931250397, -0.088491951646, -0.0532374159512, -9.78573160631, 0.14057832775, 0.3613162126, -10.0307123392
21.7050549984, -0.12053440077, -0.0593583174154, -9.8305323666, 0.24586252215, 0.0035892339, -9.8931250397, -0.0866398449338, -0.0490555627485, -9.78646088689, 0.14775679555, 0.3984049629, -10.0337033674
21.7552270889, -0.118384522048, -0.0585864834847, -9.83298041669, 0.2584248408, -0.0059820565, -9.9122676205, -0.0849486995583, -0.0559978334414, -9.78605825546, 0.11964113, 0.3337987527, -10.0372926013
21.8054130077, -0.118482578814, -0.0614661432436, -9.83522953199, 0.23928226, -0.0849452023, -9.9338030239, -0.0859592434218, -0.0549884118325, -9.7833575749, 0.1280160091, 0.36789647475, -10.0199446375
21.8555629253, -0.117892014467, -0.0627159154218, -9.83713506418, 0.23629123175, -0.0574277424, -9.9314102013, -0.0871666176236, -0.0502764615478, -9.7849985398, 0.1268195978, 0.40737804765, -10.025926694
21.9058189392, -0.119572481047, -0.0686798388439, -9.83362548626, 0.23988046565, -0.1088734283, -9.89491965665, -0.0845394961573, -0.0454232573838, -9.78739639294, 0.15373885205, 0.38464623295, -10.0402836296
21.9559910297, -0.118481714507, -0.0670934050156, -9.83259949456, 0.24945175605, -0.0454636294, -9.8931250397, -0.0841920951069, -0.0467699645029, -9.78879042133, 0.13698909385, 0.38703905555, -10.0456674804
22.0061531067, -0.11787993873, -0.0704197818509, -9.82923271455, 0.24107687695, -0.07357929495, -9.8799645154, -0.0855744604984, -0.0510570545922, -9.78942069418, 0.14297115035, 0.36191441825, -10.0271231053
22.0563321114, -0.11591434393, -0.0634479211087, -9.83102739224, 0.25064816735, 0.0023928226, -9.91406223745, -0.0860952222802, -0.0453393196287, -9.78996948699, 0.1220339526, 0.4211367776, -10.0426764522
22.1065080166, -0.114812512485, -0.0585522498954, -9.82990878636, 0.2524427843, -0.0323031051, -9.90927659225, -0.0870073038371, -0.0515407352977, -9.79076418142, 0.10827522265, 0.36430724085, -10.0157571979
22.1566751003, -0.116695931521, -0.0617315348048, -9.83185018501, 0.22552353005, -0.07118647235, -9.9038927414, -0.0874831435316, -0.0553083734566, -9.79169779169, 0.1208375413, 0.3840480273, -10.0528459482
22.2071681023, -0.117936029759, -0.0683337110828, -9.83354688879, 0.2452643165, -0.11425727915, -9.9003035075, -0.0841477345411, -0.0544598595274, -9.79065939906, 0.11904292435, 0.38464623295, -10.0456674804
22.2580029964, -0.117180117189, -0.0654311864776, -9.83235636892, 0.24705893345, -0.0526420972, -9.90209812445, -0.0865818030656, -0.05099379312, -9.78578397434, 0.12622139215, 0.41575292675, -9.98106127025
22.3081920147, -0.116340509861, -0.0613692733883, -9.83272604642, 0.25902304645, -0.00538385085, -9.8955178623, -0.0900158570831, -0.0475313490237, -9.78442753139, 0.11306086785, 0.4175475437, -10.0037930849
22.3586800098, -0.116267554857, -0.0553427973064, -9.83359496278, 0.24945175605, -0.0502492746, -9.9074819753, -0.0860949563965, -0.0445036261689, -9.78707942994, 0.15852449725, 0.40139599115, -10.0426764522
22.4088420868, -0.116761853333, -0.0563741501612, -9.83269441168, 0.25064816735, -0.0538385085, -9.88893760015, -0.0839684678887, -0.0474129003268, -9.78403517481, 0.13459627125, 0.382851616, -10.0211410488
22.4590559006, -0.117156253043, -0.0570599945611, -9.83057712818, 0.24586252215, -0.04965106895, -9.8955178623, -0.0841483061643, -0.0535381079897, -9.78316055519, 0.1328016543, 0.3720839143, -10.0348997787
22.5092079639, -0.11894099627, -0.0564593608581, -9.82913428245, 0.24346969955, -0.011964113, -9.8991070962, -0.0873114324663, -0.05089790829, -9.78378152607, 0.1292124204, 0.3996013742, -10.0265248996
22.5593559742, -0.116241397509, -0.057697310593, -9.83017597695, 0.2500499617, -0.0311066938, -9.88534836625, -0.0872628873142, -0.0522512916244, -9.78051442065, 0.12981062605, 0.3684946804, -10.0169536092
22.6095199585, -0.118666489493, -0.0590326391616, -9.82547633821, 0.23868405435, -0.05324030285, -9.882357338, -0.0872405852104, -0.0473689904895, -9.78271450834, 0.1124626622, 0.40618163635, -10.0325069561
22.6596770287, -0.116961797751, -0.0579943280872, -9.82682158984, 0.24945175605, -0.02811566555, -9.91047300355, -0.0864089726759, -0.0464981291533, -9.78537181241, 0.1256231865, 0.34516466005, -10.0307123392
22.7098870277, -0.116385007206, -0.0601789197441, -9.82705244613, 0.25304098995, -0.04725824635, -9.9003035075, -0.0865378769405, -0.0489028245577, -9.78611561532, 0.12382856955, 0.39541393465, -10.0229356657
22.7600328922, -0.118681450115, -0.0581803152959, -9.82983039388, 0.2368894374, -0.0406779842, -9.918249677, -0.0883200294352, -0.0543490987798, -9.7852992741, 0.11964113, 0.3637090352, -10.0522477426
22.8102140427, -0.116514478516, -0.0536270202088, -9.83489500069, 0.2500499617, -0.02931207685, -9.9050891527, -0.0899278927193, -0.0546207271537, -9.7859591968, 0.12861421475, 0.406779842, -10.0420782466
22.8603761196, -0.114228873554, -0.0568095653001, -9.83498231181, 0.27218357075, -0.07597211755, -9.91286582615, -0.0886437926544, -0.0511625113055, -9.78364247262, 0.1567298803, 0.4235296002, -10.0438728635
22.9105551243, -0.113746612595, -0.0582561507901, -9.83218506297, 0.2524427843, 0.01136590735, -9.8871429832, -0.0894667256886, -0.051149567637, -9.78816051464, 0.1304088317, 0.35473595045, -10.04985492
22.9607150555, -0.112389364581, -0.0621032452191, -9.83413438487, 0.26620151425, -0.04606183505, -9.91525864875, -0.0906854693478, -0.0387359199498, -9.78844703535, 0.11545369045, 0.42412780585, -10.0079805245
23.0109069347, -0.11469728938, -0.0642309714574, -9.83220412481, 0.23988046565, -0.0658026215, -9.88774118885, -0.0891404231087, -0.0436264026514, -9.79146596891, 0.1399801221, 0.39661034595, -10.0396854239
23.061109066, -0.111729609079, -0.0677802416551, -9.8315914796, 0.2667997199, -0.0514456859, -9.89013401145, -0.0893318819605, -0.0411776710526, -9.79100660151, 0.13459627125, 0.41694933805, -10.0384890127
23.1113140583, -0.113014332575, -0.0642650294611, -9.83178943708, 0.2524427843, -0.01854437515, -9.9014999188, -0.092482703248, -0.0416620458111, -9.78784429971, 0.11066804525, 0.370887503, -10.0354979844
23.1614880562, -0.115070289609, -0.0577289780825, -9.83248326112, 0.22791635265, -0.00777667345, -9.89850889055, -0.0939369589326, -0.0483503314709, -9.79233336595, 0.1339980656, 0.35712877305, -10.0492567143
23.2117400169, -0.113326807665, -0.0581614073147, -9.83056453135, 0.25064816735, -0.0311066938, -9.9074819753, -0.0912870398854, -0.0525836188488, -9.78670160414, 0.1399801221, 0.3696910917, -10.0337033674
23.261909008, -0.115737774933, -0.0554089675884, -9.82889379951, 0.2440679052, -0.01974078645, -9.88893760015, -0.0904592010977, -0.058210936569, -9.78936423313, 0.13220344865, 0.33439695835, -10.0570333878
23.3120889664, -0.117801641534, -0.0514164783333, -9.82993266018, 0.2356930261, -0.0275174599, -9.90568735835, -0.0917272293269, -0.0582944320098, -9.78963980051, 0.1256231865, 0.36670006345, -10.0271231053
23.3622739315, -0.11973327787, -0.052619554369, -9.82877679959, 0.21236300575, -0.03409772205, -9.9014999188, -0.0915994039468, -0.0467030888489, -9.7852117665, 0.13459627125, 0.45643091095, -10.0283195166
23.4124720097, -0.119640873652, -0.0525172757879, -9.8292164255, 0.2488535504, -0.06640082715, -9.91525864875, -0.0903652567104, -0.0452044334121, -9.78462805131, 0.13459627125, 0.40498522505, -10.0271231053
23.4629819393, -0.120204328319, -0.0450551928392, -9.83045379683, 0.215354034, -0.0382851616, -9.8955178623, -0.0925512666983, -0.0444948428268, -9.78853508114, 0.11066804525, 0.4043870194, -10.0438728635
23.5131499767, -0.118592713012, -0.0437819663148, -9.83010819286, 0.2356930261, -0.0155533469, -9.906285564, -0.0908132344881, -0.0443908293437, -9.79073569043, 0.1292124204, 0.4151547211, -10.0672028838
23.5632998943, -0.119488701405, -0.0483199474314, -9.83311240267, 0.2416750826, -0.0610169763, -9.92243711655, -0.0915410225684, -0.0489366901534, -9.78751718472, 0.1040877831, 0.42053857195, -10.0354979844
23.6134679317, -0.118094191469, -0.0496338284122, -9.83506584932, 0.26021945775, -0.0370887503, -9.89611606795, -0.0920726067924, -0.049027622905, -9.78570666099, 0.12741780345, 0.3421736318, -10.0354979844
23.6636300087, -0.117882505599, -0.0531377224649, -9.83039230878, 0.24346969955, -0.04725824635, -9.8787681041, -0.0768641978788, -0.0455080430815, -9.78525025194, 0.2739781877, 0.42293139455, -10.0492567143
23.7138400078, -0.118927263653, -0.0565808832539, -9.83404661017, 0.2321037922, -0.06400800455, -9.9122676205, -0.0810304297562, -0.0471430945978, -9.7861519742, 0.1256231865, 0.4163511324, -10.0283195166
23.7639989853, -0.118736755763, -0.0590878679377, -9.8369605469, 0.24705893345, -0.05802594805, -9.9290173787, -0.084280959007, -0.0480374094597, -9.78510846289, 0.12382856955, 0.3672982691, -10.0151589923
23.8141720295, -0.118886601957, -0.0583516388594, -9.8341054419, 0.2333002035, -0.0490528633, -9.9098747979, -0.0893391442268, -0.0516161165192, -9.78210164911, 0.09870393225, 0.3876372612, -10.0061859075
23.8643848896, -0.117292054456, -0.0610904753456, -9.83523751188, 0.2536391956, -0.04486542375, -9.9026963301, -0.0890309570267, -0.0455050210776, -9.7792793435, 0.13339985995, 0.4175475437, -10.0025966737
23.9146049023, -0.116763224796, -0.0581742507958, -9.83018135217, 0.23748764305, -0.05922235935, -9.8799645154, -0.0861408728704, -0.0407018059403, -9.77749868153, 0.1483550012, 0.4378865358, -10.0295159279
23.9648330212, -0.119520276245, -0.0558261506501, -9.82994733325, 0.23030917525, -0.01734796385, -9.9122676205, -0.0880973868786, -0.0417790878161, -9.7778839418, 0.107677017, 0.41216369285, -10.0043912906
24.0150659084, -0.118729173907, -0.0569058513594, -9.8315076657, 0.251246373, -0.0765703232, -9.91047300355, -0.0866327833064, -0.0439712463266, -9.77914165422, 0.14416756165, 0.36909288605, -10.0354979844
24.0652220249, -0.118325056696, -0.0580410217297, -9.83108146777, 0.2560320182, -0.06161518195, -9.918249677, -0.0874190641617, -0.0406466748211, -9.78069231763, 0.1184447187, 0.40259240245, -10.0390872183
24.1154470444, -0.121186157869, -0.059995405504, -9.83065848072, 0.22791635265, -0.05204389155, -9.89970530185, -0.0848256411445, -0.0441093080401, -9.78183469592, 0.15613167465, 0.35234312785, -10.0438728635
24.1656529903, -0.119991458063, -0.059358996611, -9.83081173474, 0.24107687695, -0.0610169763, -9.8967142736, -0.087811789929, -0.0434829370135, -9.78055615013, 0.11186445655, 0.4079762533, -10.0504531256
24.2158849239, -0.117768243946, -0.0568515973819, -9.83147489274, 0.2524427843, -0.02931207685, -9.9170532657, -0.088924408724, -0.0469331013879, -9.77960077019, 0.1280160091, 0.36430724085, -10.0145607866
24.2660629749, -0.117785985687, -0.0564716516003, -9.83524834328, 0.2536391956, -0.0382851616, -9.9014999188, -0.0897538452699, -0.0503618325202, -9.78290667497, 0.1244267752, 0.3816552047, -10.0348997787
24.3162500858, -0.119672740182, -0.0609016842653, -9.83389606259, 0.2440679052, -0.0813559684, -9.90209812445, -0.0880627765546, -0.0500643276964, -9.78160040821, 0.13459627125, 0.37148570865, -9.9972128228
24.3664879799, -0.115733411682, -0.0561031675109, -9.83305794365, 0.25782663515, -0.0394815729, -9.9170532657, -0.0923998927962, -0.0488123812406, -9.78038679867, 0.11306086785, 0.35952159565, -10.0085787301
24.4167029858, -0.114163164989, -0.0626226545383, -9.83036552847, 0.26380869165, -0.0622133876, -9.9086783866, -0.0935158721064, -0.0463371999526, -9.78424201101, 0.11784651305, 0.39541393465, -10.0325069561
24.4668951035, -0.114656499755, -0.0596686399415, -9.83053320618, 0.2476571391, -0.0251246373, -9.8859465719, -0.0913971570042, -0.0471632987066, -9.78632510282, 0.13818550515, 0.38943187815, -10.0384890127
24.5170741081, -0.116487569162, -0.062957675555, -9.83021313121, 0.24466611085, -0.08075776275, -9.9170532657, -0.0900762025307, -0.0477390079798, -9.79130184353, 0.1292124204, 0.3864408499, -10.0444710691
24.5682170391, -0.118268081464, -0.0631583533621, -9.83040378234, 0.2201396792, -0.0562313311, -9.8907322171, -0.0893886919929, -0.0472698494907, -9.78726988607, 0.1519442351, 0.37387853125, -10.024132077
24.6183800697, -0.118729239161, -0.0609220977293, -9.82995402205, 0.25423740125, -0.0011964113, -9.8907322171, -0.0893043909207, -0.0463454639729, -9.78773082172, 0.14416756165, 0.4019941968, -10.0331051618
24.6687750816, -0.120975440335, -0.0608511059554, -9.8325576071, 0.2225325018, -0.06999006105, -9.91645506005, -0.0898432984656, -0.0483930562675, -9.78849989107, 0.11784651305, 0.3960121403, -10.0348997787
24.718982935, -0.119205349632, -0.0643114549934, -9.83306252899, 0.25304098995, -0.05682953675, -9.9074819753, -0.0874114048066, -0.0383719075596, -9.78989960885, 0.1531406464, 0.4175475437, -10.0456674804
24.7691440582, -0.121773571929, -0.0532930296787, -9.83123148374, 0.22911276395, -0.01734796385, -9.9098747979, -0.0900892345451, -0.0433861166527, -9.78834972973, 0.10707881135, 0.36550365215, -10.0265248996
24.8193380833, -0.120940570506, -0.0562751551293, -9.83443503017, 0.25184457865, -0.06999006105, -9.9098747979, -0.090553784829, -0.0412913643507, -9.78638615213, 0.1172483074, 0.42532421715, -10.0187482262
24.8694829941, -0.12156097999, -0.0559129357552, -9.83350681334, 0.2476571391, -0.03768695595, -9.89252683405, -0.0882978742258, -0.0380787044239, -9.7870392678, 0.1351944769, 0.41455651545, -10.0229356657
24.9196839333, -0.121402469024, -0.0587801306673, -9.83175561244, 0.24227328825, -0.059820565, -9.8991070962, -0.0871406684384, -0.0437341381209, -9.78947622518, 0.13579268255, 0.3433700431, -10.0408818352
24.9698500633, -0.119747154698, -0.0570487336023, -9.82983367656, 0.2608176634, -0.02572284295, -9.87936630975, -0.0870922652906, -0.0495898996053, -9.78805244894, 0.1232303639, 0.37507494255, -10.0217392544
25.0200619698, -0.119897378199, -0.0583840744934, -9.82931277468, 0.2297109696, -0.0574277424, -9.882357338, -0.0878989215859, -0.0514669791888, -9.78590009037, 0.13459627125, 0.38943187815, -10.0211410488
25.0702800751, -0.117841590669, -0.0557927179241, -9.82994966815, 0.25902304645, -0.00777667345, -9.918249677, -0.0886420440326, -0.0454201121789, -9.78568210434, 0.12023933565, 0.40857445895, -10.0175518149
25.1204969883, -0.114550276211, -0.0675492802587, -9.8328068759, 0.27218357075, -0.0789631458, -9.88893760015, -0.0896475862961, -0.0422419020839, -9.78762432253, 0.12143574695, 0.38105699905, -10.0283195166
25.1707129478, -0.113037855595, -0.070024114891, -9.83529833592, 0.25782663515, -0.0370887503, -9.92243711655, -0.0891312436903, -0.0483805062599, -9.78421930938, 0.1268195978, 0.3505485109, -10.0169536092
25.2209370136, -0.112311165469, -0.0673141932392, -9.83498561525, 0.263210486, -0.0801595571, -9.90449094705, -0.0912012223523, -0.0429296398812, -9.78481656836, 0.1256231865, 0.38464623295, -10.0157571979
25.2711141109, -0.115046709998, -0.0657898242112, -9.83446092023, 0.2309073809, -0.0311066938, -9.91525864875, -0.0894564880818, -0.0446484393653, -9.78484632591, 0.155533469, 0.4079762533, -10.0163554036
25.3213250637, -0.114696198827, -0.0640765207786, -9.83486742311, 0.2560320182, -0.0370887503, -9.9014999188, -0.0899216190638, -0.0472490423604, -9.78382356963, 0.12382856955, 0.394815729, -10.0085787301
25.3714950085, -0.111869648297, -0.0637746088513, -9.83524635544, 0.23988046565, -0.05324030285, -9.89013401145, -0.0884406148838, -0.0454954323227, -9.78159267896, 0.12382856955, 0.4151547211, -10.0193464318
25.4216990471, -0.111375021787, -0.0602786918841, -9.83447471191, 0.25543381255, -0.035892339, -9.8955178623, -0.0893141158074, -0.0448184552194, -9.78389200514, 0.1292124204, 0.442672181, -10.0420782466
25.4718809128, -0.111147414281, -0.0550741843619, -9.83612417717, 0.25304098995, -0.0490528633, -9.91286582615, -0.0914613557234, -0.0452387892083, -9.78223239922, 0.11665010175, 0.4019941968, -10.0277213109
25.522051096, -0.109964488437, -0.0575803031231, -9.83330738178, 0.2464607278, -0.0562313311, -9.8907322171, -0.0919343955259, -0.0482416825922, -9.78704826547, 0.1280160091, 0.39182470075, -10.0636136499
25.5722670555, -0.112344306031, -0.0585753635452, -9.8315761267, 0.25184457865, -0.1088734283, -9.89731247925, -0.090929720658, -0.0512602677702, -9.7857686562, 0.1375872995, 0.3924229064, -10.0247302827
25.6224770546, -0.111674560799, -0.0686631724776, -9.83206634199, 0.2548356069, -0.06879364975, -9.8955178623, -0.0931625616032, -0.054465680151, -9.78518153537, 0.10468598875, 0.35593236175, -10.0420782466
25.6726169586, -0.108566949885, -0.0657219784334, -9.83391485406, 0.26739792555, -0.03888336725, -9.90329453575, -0.0931030003111, -0.0576177582228, -9.78210904654, 0.13818550515, 0.35234312785, -10.0199446375
25.7228190899, -0.111087569033, -0.0685101410788, -9.83566758614, 0.24705893345, -0.0574277424, -9.8859465719, -0.0883083950594, -0.0522023813408, -9.78761278489, 0.1471585899, 0.3840480273, -10.0749795573
25.7731790543, -0.110604062471, -0.0674984430945, -9.83304741981, 0.2476571391, -0.02811566555, -9.91286582615, -0.0891070479866, -0.0453754078003, -9.78687346267, 0.1172483074, 0.4366901245, -10.0235338714
25.8234889507, -0.113215302331, -0.0691155385956, -9.83534362508, 0.227318147, -0.0741775006, -9.91286582615, -0.0879157403147, -0.0433992008698, -9.78273773264, 0.12382856955, 0.3972085516, -9.9996056454
25.873675108, -0.111573675136, -0.0662140181754, -9.83439796685, 0.2584248408, -0.00299102825, -9.90688376965, -0.0868072117444, -0.044119511178, -9.78263006595, 0.1328016543, 0.3481556883, -10.0223374601
25.9238379002, -0.109892431352, -0.064877609954, -9.83196334285, 0.2584248408, -0.03409772205, -9.87816989845, -0.0850784866367, -0.0472106160384, -9.78514275632, 0.14416756165, 0.38105699905, -10.0731849404
25.9740109444, -0.112232101283, -0.0686257651762, -9.835021854, 0.25184457865, -0.06520441585, -9.92004429395, -0.0869736435432, -0.0441080521976, -9.7840038577, 0.1124626622, 0.41575292675, -10.0133643753
26.0242319107, -0.124730556024, -0.0592933973695, -9.83595654301, 0.16211373115, 0.01854437515, -9.9493563708, -0.104240103052, -0.0511863120706, -9.78063238365, 0.07118647235, 0.2464607278, -9.97747203635
26.0744299889, -0.124807313522, -0.0686848082618, -9.83516960497, 0.2500499617, -0.07118647235, -9.92363352785, -0.091026950529, -0.0509235819402, -9.78217498307, 0.1447657673, 0.38464623295, -9.97507921375
26.1246230602, -0.121504261089, -0.0505805036798, -9.84216535289, 0.26979074815, 0.0311066938, -9.9505527821, -0.0870420137017, -0.03353069557, -9.78180023187, 0.18005990065, 0.48993042735, -10.0612208274
26.175786972, -0.108399392336, -0.0566203830826, -9.83767431313, 0.3373879866, -0.0981057266, -9.8919286284, -0.0807096602814, -0.0265008929767, -9.77862841569, 0.1818545176, 0.3361915753, -10.0426764522
26.2259879112, -0.10396391301, -0.0686612429164, -9.84236957564, 0.2524427843, -0.08075776275, -9.966106129, -0.0736661959309, -0.0400988850886, -9.78484090354, 0.1579262916, 0.36670006345, -10.0648100613
26.2761850357, -0.114536684548, -0.0613295860178, -9.83973006341, 0.1818545176, -0.0035892339, -9.93021379, -0.0858413566856, -0.0315459518878, -9.7832149898, 0.04965106895, 0.43369909625, -10.0558369765
26.3263540268, -0.157992864516, -0.0593044951045, -9.8334426635, 0.09152546445, -0.1052841944, -9.8392865312, -0.127399721469, -0.017185658506, -9.77333765489, -0.0203389921, 0.47437708045, -9.9338030239
26.3765099049, -0.158952179426, -0.0889251125101, -9.83183525631, 0.19202401365, -0.2261217357, -9.80997445435, -0.133427328735, -0.0530719989623, -9.77669097878, 0.05802594805, 0.1938186306, -9.9852487098
26.4266660213, -0.140662665384, -0.113077880198, -9.83677469116, 0.323031051, -0.11784651305, -9.9625168951, -0.114107221701, -0.0661485504593, -9.78448255524, 0.191425808, 0.4654039957, -10.0707921177
26.4769339561, -0.153684412958, -0.0782123378676, -9.83298484608, 0.0849452023, 0.06999006105, -9.8919286284, -0.124837872489, -0.0364108794971, -9.7871719878, 0.00179461695, 0.50668018555, -10.0337033674
26.5271060467, -0.193256586444, -0.0752419330872, -9.83358621987, -0.0059820565, -0.0634097989, -9.89850889055, -0.164792293156, -0.0494299103806, -9.78769170335, -0.1064806057, 0.35952159565, -10.0486585087
26.5772869587, -0.231986402209, -0.0843129937876, -9.83308812771, -0.0287138712, -0.1268195978, -9.89133042275, -0.206546836341, -0.0572117673998, -9.78944238466, -0.1818545176, 0.3565305674, -10.0115697584
26.6274878979, -0.275273809527, -0.0870364232805, -9.83465276964, -0.1220339526, -0.04127618985, -9.92124070525, -0.252224452304, -0.0634672151333, -9.79428217284, -0.26380869165, 0.38823546685, -10.0307123392
26.6776709557, -0.339077734626, -0.0755909398927, -9.83214371024, -0.12502498085, -0.095712904, -9.88893760015, -0.311865309432, -0.0630139962678, -9.79337393176, -0.23928226, 0.2919243572, -10.0253284884
26.7278459072, -0.40103048385, -0.100442810433, -9.82836206269, -0.22073788485, -0.083748791, -9.9230353222, -0.378155468536, -0.0875653655209, -9.79171700802, -0.3421736318, 0.34277183745, -10.0642118556
26.7780029774, -0.440255360641, -0.089465478306, -9.8290479862, -0.2679961312, -0.0059820565, -9.9266245561, -0.421759860758, -0.0795531273249, -9.78854535217, -0.40977087025, 0.39302111205, -10.0534441539
26.828193903, -0.475054431431, -0.0975509156304, -9.82774914672, -0.2368894374, -0.13698909385, -9.90808018095, -0.454584900898, -0.0821738864357, -9.78757950208, -0.3433700431, 0.34875389395, -10.0683992951
26.8783979416, -0.503546330828, -0.0717692599245, -9.82168823491, -0.1962114532, 0.06879364975, -9.80159957525, -0.481420981575, -0.0580158572384, -9.78977023769, -0.2811566555, 0.4283152454, -10.0642118556
26.928622961, -0.47388739206, -0.0711212604983, -9.82062124716, 0.047856452, -0.07956135145, -9.95832945555, -0.451997125887, -0.0602242091211, -9.78406717081, -0.0705882667, 0.35234312785, -10.1186485698
26.9788401127, -0.424693729806, -0.0677437230895, -9.82760665711, 0.1112662509, -0.0227318147, -10.0301141335, -0.395909531162, -0.0507692821638, -9.77840356282, 0.0502492746, 0.44925244315, -10.1413803844
27.0290760994, -0.367699717551, -0.06015568689, -9.82485285583, 0.27936203855, 0.02333002035, -9.8536434668, -0.333650077471, -0.0386635491112, -9.77445936637, 0.1698904046, 0.4893322217, -9.99781102845
27.0792639256, -0.306591390487, -0.0401728808839, -9.82994431396, 0.3254238736, 0.04486542375, -9.98823973805, -0.273158100948, -0.0112287848331, -9.78116487076, 0.22313070745, 0.55094740365, -10.1479606466
27.1294538975, -0.220536702704, -0.0321965061004, -9.83006678005, 0.35114671655, -0.0658026215, -9.99541820585, -0.182644917883, 0.00062077196648, -9.780133052, 0.27218357075, 0.4223331889, -10.1748799008
27.1796600819, -0.161630613172, -0.0342398103053, -9.82332212413, 0.4893322217, -0.02213360905, -9.7974121357, -0.132514900566, 0.000683231207849, -9.76981239349, 0.3170489945, 0.45523449965, -9.91525864875
27.2298839092, -0.121326300913, -0.0831718207572, -9.81945216221, 0.4103690759, -0.2679961312, -9.68913691305, -0.103251565663, -0.0463150511791, -9.79246364099, 0.2679961312, 0.07118647235, -9.8620183459
27.2815699577, -0.119429726135, -0.109920657996, -9.83324473061, 0.2105683888, -0.12861421475, -10.0666046782, -0.0870434849774, -0.10427499795, -9.80115889409, 0.0669990328, 0.30089744195, -10.1772727234
27.3317298889, -0.117175653785, -0.108891293798, -9.82091321103, 0.2608176634, -0.0071784678, -9.8536434668, -0.0826729665467, -0.114856633196, -9.7938961702, 0.179461695, 0.25663022385, -10.0767741743
27.3818869591, -0.114253841208, -0.110513777065, -9.81813454929, 0.2931207685, -0.0059820565, -9.7615197967, -0.0793990175112, -0.0966369999683, -9.7884833613, 0.17168502155, 0.4331008906, -9.9493563708
27.4321060181, -0.119820677573, -0.0708951328361, -9.84423130799, 0.19082760235, -0.03050848815, -10.1090772793, -0.0820143501616, -0.0644504931828, -9.81158912072, 0.12143574695, 0.4199403663, -10.2347004658
27.4823389053, -0.138796629942, -0.0819041067243, -9.83485707097, 0.0969093153, -0.0430708068, -10.0450692748, -0.100235346299, -0.0698677977292, -9.79567703315, 0.00299102825, 0.38943187815, -10.1294162714
27.5325689316, -0.161080206379, -0.0915398637227, -9.82445051379, 0.1256231865, -0.11066804525, -9.8021977809, -0.131793087229, -0.0762729378257, -9.77820959662, -0.0299102825, 0.35353953915, -9.9158568544
27.582832098, -0.196459920974, -0.113061682446, -9.84575202329, 0.0023928226, -0.17407784415, -10.061819033, -0.165269118133, -0.0773873208273, -9.78492040404, -0.09990034355, 0.47557349175, -9.98823973805
27.6330070496, -0.241625183701, -0.0921525850548, -9.83838421786, 0.05324030285, -0.1292124204, -9.8632147572, -0.20834304838, -0.0621882688751, -9.79115598401, -0.0394815729, 0.2823530668, -10.0235338714
27.6831610203, -0.268012422211, -0.0831930679309, -9.84526563639, -0.06879364975, -0.0394815729, -10.0905329042, -0.250413181207, -0.0554323733678, -9.80173599361, -0.287138712, 0.3996013742, -10.3088779664
27.7333800793, -0.283695825993, -0.0361203239091, -9.82174169837, 0.07118647235, 0.15134602945, -9.77527852665, -0.2621482611, -0.0201294615027, -9.77366817466, -0.10348957745, 0.5419743189, -10.0067841132
27.7835531235, -0.320711784353, -0.0394998583924, -9.86301751259, -0.0789631458, -0.07956135145, -9.99422179455, -0.298810958993, -0.0306907654797, -9.79953498103, -0.18723836845, 0.34995030525, -9.91166941485
27.8337440491, -0.300379633403, -0.0507437656668, -9.83962736741, 0.1663011707, -0.06879364975, -9.99182897195, -0.28467721631, -0.0400171069895, -9.78729864473, -0.0143569356, 0.38584264425, -10.1353983279
27.8839259148, -0.289387826053, -0.0666221346701, -9.81293309312, 0.2189432679, -0.0705882667, -9.6155576181, -0.277237805091, -0.0567146847965, -9.77072560394, 0.02452643165, 0.39302111205, -9.89013401145
27.9341421127, -0.257707119782, -0.0603299524967, -9.84805203037, 0.2919243572, -0.0095712904, -9.9649097177, -0.255262776875, -0.0435810202042, -9.79937682376, 0.059820565, 0.4414757697, -9.94038328605
27.9842970371, -0.24957088577, -0.0741326984015, -9.85429462826, 0.13579268255, 0.0801595571, -10.179665546, -0.255030171922, -0.0524280287042, -9.79340238727, -0.0669990328, 0.60717873475, -10.060024416
28.0345261097, -0.250586017509, -0.0377534764277, -9.83245415409, 0.1423729447, 0.1160518961, -9.79801034135, -0.233452059905, -0.0390260765429, -9.78347979863, 0.0490528633, 0.3505485109, -10.061819033
28.084717989, -0.245127114893, -0.09929731422, -9.84184413978, 0.0705882667, -0.3816552047, -9.88415195495, -0.232244982852, -0.101666041451, -9.7818552664, -0.03290131075, 0.02691925425, -10.0085787301
28.1349511147, -0.259297635376, -0.0851757106207, -9.85916488795, 0.06879364975, 0.0610169763, -10.2795658896, -0.230094767364, -0.0744043783235, -9.81391328851, 0.1112662509, 0.61794643645, -10.4602239959
28.1851630211, -0.222512525125, -0.0296494553002, -9.82744990791, 0.2596212521, 0.0765703232, -9.942177903, -0.207990172494, -0.0310921126715, -9.78836281584, 0.02093719775, 0.5228317381, -10.2616197201
28.2354259491, -0.252866163929, -0.0316622422982, -9.84518452222, 0.0215354034, -0.1052841944, -9.7998049583, -0.239162242174, -0.0283362108194, -9.78164101696, -0.0574277424, 0.3804587934, -9.8069834261
28.2856049538, -0.212660159067, -0.0577438100621, -9.84036811783, 0.2344966148, -0.1818545176, -9.6335037876, -0.206065348114, -0.0430421805799, -9.75413757858, 0.01734796385, 0.24705893345, -9.39481973325
28.3358900547, -0.200690314, -0.0575413031483, -9.86916173788, 0.1986042758, 0.01854437515, -10.3381900433, -0.18557120699, -0.0381473710682, -9.80516685281, 0.1064806057, 0.4319044793, -10.3555380071
28.3861169815, -0.23323555585, -0.013507324226, -9.88138809678, -0.0430708068, -0.04366901245, -10.4488580886, -0.221481455861, 0.00665894857479, -9.81831285906, -0.1220339526, 0.4247260115, -10.6193466988
28.4363489151, -0.164630539403, -0.0239889131475, -9.83808081346, 0.6687939167, -0.0155533469, -9.61974505765, -0.141659425583, -0.0177319378634, -9.77575098721, 0.4701896409, 0.35892339, -9.774680321
28.4865560532, -0.165255914843, -0.021771119039, -9.84716145505, 0.05084748025, -0.0, -9.89013401145, -0.161272810973, -0.0106171580804, -9.79269762868, -0.11784651305, 0.47796631435, -9.9637133064
28.5368111134, -0.129648793858, -0.0116835755021, -9.85237519851, 0.51266224205, -0.0323031051, -10.1120683076, -0.129171595896, 0.0043641626104, -9.77786008849, 0.28773691765, 0.4630111731, -9.9876415324
28.587018013, -0.125524228887, -0.024603880124, -9.82291240387, 0.51146583075, -0.12143574695, -9.60179888815, -0.110154742233, 0.00316928296048, -9.78168578175, 0.4223331889, 0.454636294, -10.0989077833
28.6371850967, -0.178660581109, 0.0285124353386, -9.83465370719, -0.29012974025, 0.1842473402, -9.76570723625, -0.168631399984, 0.0434135452, -9.7794150734, -0.39062828945, 0.61316079125, -9.8883393945
28.6873729229, -0.0962605725375, -0.0234034932468, -9.83604529275, 0.5216353268, -0.2763710103, -9.90808018095, -0.0869727607671, -0.00480939635796, -9.78579902809, 0.1579262916, 0.17766707805, -10.1443714127
28.7375450134, -0.173333897033, -0.0332969342584, -9.84547080888, -0.01734796385, -0.0263210486, -9.7136633447, -0.166484112066, -0.00418180554195, -9.76660123245, -0.09391828705, 0.43010986235, -9.57667425085
28.7878820896, -0.142419715292, -0.0336816507807, -9.83754451637, 0.0430708068, 0.1016949605, -9.15314465065, -0.160543213927, -0.00234886309908, -9.74168524001, -0.25543381255, 0.38584264425, -9.09093126305
28.8382389545, -0.209562283703, -0.0469343080329, -9.86282476844, 0.0394815729, -0.14297115035, -10.4231352456, -0.187444058248, -0.0307650575028, -9.79801764832, 0.1459621786, 0.23748764305, -10.6438731305
28.8884661198, -0.176693488008, -0.0748254984492, -9.81985608139, -0.0215354034, -0.0334995164, -9.3116691479, -0.190874810751, -0.0542368112637, -9.74151524842, -0.38703905555, 0.37507494255, -9.62094146895
28.9386889935, -0.152433765762, -0.0308488805822, -9.85328734748, 0.62392849295, 0.1088734283, -9.83390268035, -0.129195796056, -0.00389418101986, -9.76350246084, 0.47198425785, 0.5886343596, -9.9098747979
28.9889159203, -0.162549013937, -0.0423845288716, -9.87632421871, 0.07118647235, -0.0789631458, -10.2717892161, -0.151619943237, 0.00116570238691, -9.80627384026, -0.05443671415, 0.4761716974, -10.4237334512
29.0391640663, -0.19461798098, -0.0463358220001, -9.79802426163, -0.25663022385, -0.12382856955, -9.6203432633, -0.173144334011, -0.00722082285359, -9.78184506065, -0.3912264951, 0.3373879866, -10.3800644388
29.0895450115, -0.163834863683, -0.0723427178916, -9.86106462183, 0.7645068207, -0.09750752095, -9.4588277378, -0.118394698949, -0.0370084545999, -9.77360988927, 0.70648087265, 0.2823530668, -9.11725231165
29.1398530006, -0.159389082184, -0.0411789682622, -9.86839848058, 0.17647066675, -0.0382851616, -10.0414800409, -0.139509138827, -0.00521019009593, -9.82831530013, 0.19561324755, 0.32841490185, -9.85424167245
29.1907711029, -0.119778964642, -0.0497317458907, -9.8301899847, 0.1459621786, 0.01615155255, -9.8069834261, -0.0838227999496, -0.0237492126826, -9.77628994527, 0.07597211755, 0.4522434714, -10.1413803844
29.2409789562, -0.121987150938, -0.0558016160225, -9.84322574021, 0.2129612114, -0.02333002035, -9.73101130855, -0.0868851054504, -0.020094461582, -9.7775082447, -0.06400800455, 0.5551348432, -9.93559764085
