TIME, IMU1_acc_x, IMU1_acc_y, IMU1_acc_z, IMU1_acc_raw_x, IMU1_acc_raw_y, IMU1_acc_raw_z,IMU2_acc_x, IMU2_acc_y,IMU2_acc_z, IMU2_acc_raw_x, IMU2_acc_raw_y, IMU2_acc_raw_z3.09944152832e-06, 0.0, 0.0, 0.0, 0.0, 0.0, 0.0, 0.0, 0.0, 0.0, 0.0, 0.0, 0.0
0.0501809120178, 0.523716320745, 0.976901645275, -14.0478988328, 0.7465606512, 0.6867400862, -9.86381296285, 0.0, 0.0, 0.0, 0.57367921835, 1.1868400096, -10.0133643753
0.100322008133, 0.526513010719, 0.97122951991, -14.0467739412, 0.74117680035, 0.71844498565, -9.8524470555, 0.0, 0.0, 0.0, 0.57726845225, 1.1330015011, -10.0528459482
0.150468111038, 0.522386804212, 0.980284036801, -14.0477371415, 0.70169522745, 0.69332034835, -9.85065243855, 0.0, 0.0, 0.0, 0.58803615395, 1.16470640055, -10.0474620974
0.200632095337, 0.518874607691, 0.969943916121, -14.0357999044, 0.72442704215, 0.7381857721, -9.8309116521, 0.0, 0.0, 0.0, 0.58205409745, 1.0552347666, -10.012167964
0.250868082047, 0.519040781728, 0.988188429263, -14.0482094436, 0.72442704215, 0.72562345345, -9.8727860476, 0.0, 0.0, 0.0, 0.5694917788, 1.1533404932, -10.0277213109
0.301177024841, 0.517429209032, 0.976266130241, -14.0480702076, 0.7082754896, 0.6843472636, -9.85902731765, 0.0, 0.0, 0.0, 0.5838487144, 1.10249301295, -10.0301141335
0.351488113403, 0.523169516873, 0.974340887133, -14.0453897932, 0.7142575461, 0.7022934331, -9.8835537493, 0.0, 0.0, 0.0, 0.5922235935, 1.09651095645, -10.0061859075
0.401742935181, 0.52198303615, 0.968607736445, -14.0482375792, 0.705882667, 0.72801627605, -9.88056272105, 0.0, 0.0, 0.0, 0.58444692005, 1.07497555305, -10.0390872183
0.451956987381, 0.512238412752, 0.971100813046, -14.0389227945, 0.7202396026, 0.71007010655, -9.8536434668, 0.0, 0.0, 0.0, 0.5635097223, 1.1018948073, -9.9924271776
0.502137899399, 0.518018934789, 0.961616275519, -14.037356822, 0.73639115515, 0.6999006105, -9.84945602725, 0.0, 0.0, 0.0, 0.5922235935, 1.0636096457, -10.0307123392
0.552445888519, 0.523585272129, 0.962556364873, -14.0353116704, 0.7274180704, 0.70528446135, -9.834500886, 0.0, 0.0, 0.0, 0.58923256525, 1.11924277115, -10.0043912906
0.602727890015, 0.522729966378, 0.972779172738, -14.040124333, 0.7262216591, 0.7680960546, -9.8524470555, 0.0, 0.0, 0.0, 0.57128639575, 1.1186445655, -10.0348997787
0.652937889099, 0.518324050274, 0.98857347028, -14.0393030133, 0.7106683122, 0.71964139695, -9.8428757651, 0.0, 0.0, 0.0, 0.586241537, 1.13718894065, -10.0217392544
0.70327091217, 0.521010673188, 1.00556796402, -14.0458826121, 0.74476603425, 0.69571317095, -9.8536434668, 0.0, 0.0, 0.0, 0.5802594805, 1.17068845705, -10.0510513313
0.753700971603, 0.523216059844, 0.985981252875, -14.043597536, 0.7202396026, 0.66580288845, -9.87577707585, 0.0, 0.0, 0.0, 0.586241537, 1.0971091621, -9.9960164115
0.803879022598, 0.519956602647, 0.988297390756, -14.0506315616, 0.73758756645, 0.7070790783, -9.8799645154, 0.0, 0.0, 0.0, 0.5647061336, 1.11445712595, -10.0486585087
0.854063034058, 0.516532742923, 0.996469292998, -14.0472743446, 0.72323063085, 0.75194450205, -9.8596255233, 0.0, 0.0, 0.0, 0.5718846014, 1.11804635985, -10.0253284884
0.90421795845, 0.515616027984, 1.00073705859, -14.0475989868, 0.7190431913, 0.7704888772, -9.85065243855, 0.0, 0.0, 0.0, 0.57128639575, 1.11684994855, -10.0247302827
0.95449590683, 0.50977160658, 0.988728881876, -14.0428300423, 0.71485575175, 0.69332034835, -9.84825961595, 0.0, 0.0, 0.0, 0.55573304885, 1.15274228755, -10.0504531256
1.00497698784, 0.510009693665, 0.973590162297, -14.0475319336, 0.70528446135, 0.69930240485, -9.87338425325, 0.0, 0.0, 0.0, 0.57487562965, 1.0947163395, -10.0199446375
1.05527091026, 0.511531363428, 0.967909949624, -14.0489795882, 0.7429714173, 0.73758756645, -9.8524470555, 0.0, 0.0, 0.0, 0.57367921835, 1.07677017, -10.0432746578
1.10550403595, 0.513612541405, 0.982575198752, -14.0457082355, 0.70528446135, 0.7453642399, -9.84467038205, 0.0, 0.0, 0.0, 0.58683974265, 1.0360921858, -10.0462656861
1.15582799911, 0.512304450176, 0.987890793942, -14.041785138, 0.72323063085, 0.68015982405, -9.858429112, 0.0, 0.0, 0.0, 0.57008998445, 1.1389835576, -10.03609619
1.20605111122, 0.513122891765, 0.980371497792, -14.0478257239, 0.73040909865, 0.6771687958, -9.87936630975, 0.0, 0.0, 0.0, 0.5682953675, 1.13599252935, -10.0396854239
1.25638389587, 0.513109946802, 0.973778754514, -14.0405988026, 0.72203421955, 0.69092752575, -9.84945602725, 0.0, 0.0, 0.0, 0.57607204095, 1.0971091621, -10.0444710691
1.30667710304, 0.51238345123, 0.997413822894, -14.0475240706, 0.72323063085, 0.7393821834, -9.86859860805, 0.0, 0.0, 0.0, 0.5814558918, 1.20059873955, -10.0570333878
1.35690307617, 0.511075183293, 0.994728503203, -14.0494111854, 0.70887369525, 0.7453642399, -9.87099143065, 0.0, 0.0, 0.0, 0.59880385565, 1.1318050898, -10.0223374601
1.40714788437, 0.511762354264, 0.99235544953, -14.0478482822, 0.71964139695, 0.68853470315, -9.8548398781, 0.0, 0.0, 0.0, 0.58444692005, 1.1533404932, -10.061819033
1.45737099648, 0.50715744208, 0.995242604947, -14.0401189276, 0.7094719009, 0.7310073043, -9.8500542329, 0.0, 0.0, 0.0, 0.5922235935, 1.1557333158, -10.0067841132
1.50756907463, 0.508542288539, 0.999795925199, -14.0459062744, 0.7142575461, 0.6855436749, -9.8404829425, 0.0, 0.0, 0.0, 0.5910271822, 1.15154587625, -10.0456674804
1.55781197548, 0.510010880015, 1.00374186196, -14.0494183177, 0.7190431913, 0.71126651785, -9.8656075798, 0.0, 0.0, 0.0, 0.57846486355, 1.13718894065, -10.0510513313
1.60814094543, 0.506560349748, 0.994650505468, -14.0439290296, 0.7190431913, 0.7082754896, -9.8608219346, 0.0, 0.0, 0.0, 0.5587240771, 1.1413763802, -10.0205428432
1.65844607353, 0.508790468003, 0.994929582088, -14.0500310995, 0.71724857435, 0.7381857721, -9.8751788702, 0.0, 0.0, 0.0, 0.5778666579, 1.1138589203, -10.0313105448
1.70869088173, 0.508986409944, 0.998262667788, -14.0468507538, 0.7214360139, 0.75314091335, -9.83509909165, 0.0, 0.0, 0.0, 0.58325050875, 1.1090732751, -10.0175518149
1.75896692276, 0.504275167763, 0.979747846398, -14.0473690626, 0.7130611348, 0.7070790783, -9.8297152408, 0.0, 0.0, 0.0, 0.56051869405, 1.06301144005, -10.0612208274
1.80911803246, 0.50075212843, 0.98945678246, -14.0409136598, 0.69930240485, 0.7286144817, -9.870393225, 0.0, 0.0, 0.0, 0.5718846014, 1.11445712595, -10.0438728635
1.85936403275, 0.502863299342, 0.990558401229, -14.0470306793, 0.7190431913, 0.7142575461, -9.86381296285, 0.0, 0.0, 0.0, 0.5659025449, 1.136590735, -10.037890807
1.90955901146, 0.501664115045, 0.995742210133, -14.0393391528, 0.71605216305, 0.71365934045, -9.85543808375, 0.0, 0.0, 0.0, 0.550349198, 1.07258273045, -10.0008020567
1.96002292633, 0.502639060732, 0.993823096894, -14.042053254, 0.73040909865, 0.72442704215, -9.870393225, 0.0, 0.0, 0.0, 0.58444692005, 1.1162517429, -10.0348997787
2.01034593582, 0.503968223551, 0.999848404348, -14.0489464438, 0.73280192125, 0.68973111445, -9.8488578216, 0.0, 0.0, 0.0, 0.56889357315, 1.13479611805, -10.0594262104
2.06063008308, 0.503515818603, 1.0080250099, -14.0426376448, 0.7190431913, 0.7250252478, -9.84586679335, 0.0, 0.0, 0.0, 0.5718846014, 1.1497512593, -10.0277213109
2.110861063, 0.506838213322, 0.997298558206, -14.0403855086, 0.7345965382, 0.69810599355, -9.86022372895, 0.0, 0.0, 0.0, 0.5778666579, 1.0923235169, -10.0337033674
2.16111397743, 0.503479850581, 0.98376822796, -14.0589066987, 0.70049881615, 0.67417776755, -9.90568735835, 0.0, 0.0, 0.0, 0.56410792795, 1.100698396, -10.0438728635
2.21133208275, 0.492489260803, 0.981802576509, -14.0526815531, 0.6855436749, 0.69451675965, -9.8452685877, 0.0, 0.0, 0.0, 0.54496534715, 1.1533404932, -10.0636136499
2.26154589653, 0.500463428691, 0.987153343663, -14.0495247307, 0.73040909865, 0.65862442065, -9.8632147572, 0.0, 0.0, 0.0, 0.562313311, 1.14197458585, -10.0325069561
2.31178307533, 0.505380568224, 0.996200805038, -14.0405409697, 0.70767728395, 0.68614188055, -9.87338425325, 0.0, 0.0, 0.0, 0.5886343596, 1.12881406155, -10.0097751414
2.36202406883, 0.507112736263, 0.989188425341, -14.0364615911, 0.71844498565, 0.6592226263, -9.8488578216, 0.0, 0.0, 0.0, 0.56410792795, 1.1162517429, -10.0325069561
2.4122428894, 0.502838350493, 0.987890238335, -14.0308192571, 0.705882667, 0.73040909865, -9.834500886, 0.0, 0.0, 0.0, 0.5551348432, 1.0803594039, -10.0079805245
2.46250510216, 0.499389256368, 1.00304047841, -14.0510172183, 0.71724857435, 0.7094719009, -9.8775716928, 0.0, 0.0, 0.0, 0.55453663755, 1.18983103785, -10.0642118556
2.51275110245, 0.495156834672, 0.991998024055, -14.0502780969, 0.6975077879, 0.73280192125, -9.86740219675, 0.0, 0.0, 0.0, 0.5718846014, 1.0839486378, -10.0301141335
2.56300091743, 0.497099005704, 0.994031409811, -14.0483101958, 0.7214360139, 0.7070790783, -9.86979501935, 0.0, 0.0, 0.0, 0.5790630692, 1.1102696864, -10.0462656861
2.61321091652, 0.501990138756, 0.994468547003, -14.0524051764, 0.72203421955, 0.7800601676, -9.86620578545, 0.0, 0.0, 0.0, 0.56051869405, 1.1306086785, -10.0402836296
2.66345310211, 0.496594271671, 0.985957310744, -14.0477658114, 0.71246292915, 0.7214360139, -9.86261655155, 0.0, 0.0, 0.0, 0.54616175845, 1.10010019035, -10.0271231053
2.71375393867, 0.494052138093, 0.9938246181, -14.0512759611, 0.70767728395, 0.70528446135, -9.8727860476, 0.0, 0.0, 0.0, 0.562313311, 1.160518961, -10.0510513313
2.76408195496, 0.496557514113, 0.983522483507, -14.0500791325, 0.72203421955, 0.7190431913, -9.846464999, 0.0, 0.0, 0.0, 0.5635097223, 1.0624132344, -10.0217392544
2.81433105469, 0.501763184022, 0.959128216796, -14.0496599655, 0.71126651785, 0.68733829185, -9.85184884985, 0.0, 0.0, 0.0, 0.5682953675, 1.14795664235, -10.0205428432
2.86459994316, 0.504554419694, 0.977831592, -14.0487607394, 0.72203421955, 0.7082754896, -9.85663449505, 0.0, 0.0, 0.0, 0.57966127485, 1.12283200505, -10.0301141335
2.91474795341, 0.501622965336, 0.978959352088, -14.0493904808, 0.7154539574, 0.70528446135, -9.8715896363, 0.0, 0.0, 0.0, 0.57846486355, 1.11924277115, -10.0175518149
2.96501302719, 0.496854301583, 0.990387986927, -14.051188979, 0.6999006105, 0.7680960546, -9.8524470555, 0.0, 0.0, 0.0, 0.56530433925, 1.10608224685, -10.0564351822
3.01519989967, 0.495775322228, 0.998057181236, -14.0486046475, 0.72203421955, 0.7322037156, -9.85663449505, 0.0, 0.0, 0.0, 0.55214381495, 1.09411813385, -10.025926694
3.06545805931, 0.499873069373, 0.985091321716, -14.0458401749, 0.72442704215, 0.6664010941, -9.84108114815, 0.0, 0.0, 0.0, 0.5694917788, 1.1042876299, -10.0432746578
3.11566591263, 0.506241338053, 0.983585364441, -14.0378351898, 0.705882667, 0.70289163875, -9.8644111685, 0.0, 0.0, 0.0, 0.59880385565, 1.0899306943, -10.0043912906
3.16586303711, 0.500944778639, 0.971054628164, -14.0306989376, 0.69092752575, 0.6975077879, -9.85184884985, 0.0, 0.0, 0.0, 0.5778666579, 1.0695917022, -9.990034355
3.21610808372, 0.499337407803, 0.972225796177, -14.0310490761, 0.7202396026, 0.69930240485, -9.8189475391, 0.0, 0.0, 0.0, 0.5551348432, 1.11086789205, -10.0486585087
3.26634502411, 0.500791699369, 0.977975229167, -14.0307519232, 0.71964139695, 0.6508477472, -9.8572327007, 0.0, 0.0, 0.0, 0.57487562965, 1.1736794853, -10.013962581
3.31676292419, 0.503825435348, 0.971703186311, -14.0426225561, 0.73399833255, 0.7010970218, -9.8548398781, 0.0, 0.0, 0.0, 0.57367921835, 1.112662509, -10.0594262104
3.367166996, 0.499622902454, 0.961666445646, -14.0502571215, 0.71964139695, 0.658026215, -9.8799645154, 0.0, 0.0, 0.0, 0.5682953675, 1.1018948073, -10.0211410488
3.41742897034, 0.500215996857, 0.997168275707, -14.0569443896, 0.70289163875, 0.75433732465, -9.8524470555, 0.0, 0.0, 0.0, 0.56769716185, 1.1916256548, -10.0540423596
3.46772003174, 0.499536931078, 0.989249765292, -14.0494404604, 0.71605216305, 0.67896341275, -9.8416793538, 0.0, 0.0, 0.0, 0.56171510535, 1.1150553316, -10.0372926013
3.51793003082, 0.505603973931, 0.991293100447, -14.0487816057, 0.72921268735, 0.73519474385, -9.86740219675, 0.0, 0.0, 0.0, 0.5694917788, 1.15633152145, -10.0283195166
3.56816887856, 0.50903173468, 0.976518802468, -14.0393418003, 0.72562345345, 0.6987041992, -9.87218784195, 0.0, 0.0, 0.0, 0.60000026695, 1.0839486378, -10.0043912906
3.61839795113, 0.503469362624, 0.985019288412, -14.0354748846, 0.72203421955, 0.7142575461, -9.8739824589, 0.0, 0.0, 0.0, 0.56291151665, 1.1150553316, -10.0229356657
3.66856098175, 0.508325774933, 0.977603966734, -14.0403395475, 0.7226324252, 0.72442704215, -9.8775716928, 0.0, 0.0, 0.0, 0.57367921835, 1.0947163395, -10.0289177222
3.71881890297, 0.507685584082, 0.98102561726, -14.0524170056, 0.7118647235, 0.70648087265, -9.8739824589, 0.0, 0.0, 0.0, 0.57966127485, 1.1114660977, -10.0582297991
3.76905989647, 0.504455220848, 0.986017549628, -14.0526843326, 0.7046862557, 0.6903293201, -9.8847501606, 0.0, 0.0, 0.0, 0.5539384319, 1.148554848, -10.0402836296
3.81937289238, 0.509922256277, 0.985209632441, -14.0408444086, 0.7310073043, 0.67417776755, -9.8596255233, 0.0, 0.0, 0.0, 0.5886343596, 1.1473584367, -9.99900743975
3.86983299255, 0.509029690202, 0.979235875226, -14.0352872821, 0.7130611348, 0.6652046828, -9.86381296285, 0.0, 0.0, 0.0, 0.5730810127, 1.1138589203, -9.97986485895
3.91999387741, 0.515128916993, 0.99026714092, -14.0307601463, 0.73878397775, 0.74955167945, -9.8368937086, 0.0, 0.0, 0.0, 0.5814558918, 1.1222337994, -10.0229356657
3.97021102905, 0.512837743249, 0.989354125244, -14.0302069843, 0.69690958225, 0.7238288365, -9.8416793538, 0.0, 0.0, 0.0, 0.58803615395, 1.13240329545, -10.0109715527
4.02038407326, 0.509331023567, 0.973684307947, -14.0320924882, 0.7130611348, 0.69930240485, -9.84467038205, 0.0, 0.0, 0.0, 0.5635097223, 1.06899349655, -10.0229356657
4.07066392899, 0.514828403308, 0.966927403212, -14.0416239267, 0.74117680035, 0.65144595285, -9.8751788702, 0.0, 0.0, 0.0, 0.58683974265, 1.0995019847, -10.037890807
4.12099695206, 0.508618144496, 0.97691350383, -14.0418878559, 0.7166503687, 0.741775006, -9.8859465719, 0.0, 0.0, 0.0, 0.56410792795, 1.0995019847, -10.0193464318
4.1712179184, 0.50976927247, 0.989955107157, -14.0411957558, 0.71724857435, 0.72681986475, -9.8787681041, 0.0, 0.0, 0.0, 0.574277424, 1.1198409768, -10.0325069561
4.22153902054, 0.511491469791, 0.989008094409, -14.0499192015, 0.71605216305, 0.7010970218, -9.86142014025, 0.0, 0.0, 0.0, 0.57726845225, 1.0971091621, -10.037890807
4.27183794975, 0.51101620897, 0.992229932274, -14.0522634648, 0.6867400862, 0.6795616184, -9.8751788702, 0.0, 0.0, 0.0, 0.58325050875, 1.11086789205, -10.0145607866
4.32206988335, 0.505676041304, 0.999147041129, -14.0394119746, 0.71246292915, 0.74117680035, -9.8416793538, 0.0, 0.0, 0.0, 0.58444692005, 1.12402841635, -10.0073823188
4.37226605415, 0.50699970677, 0.999936060301, -14.0446735898, 0.6927221427, 0.6795616184, -9.8644111685, 0.0, 0.0, 0.0, 0.586241537, 1.1748758966, -10.0366943957
4.4224729538, 0.506467179564, 0.973996171197, -14.0488402658, 0.71485575175, 0.62632131555, -9.8739824589, 0.0, 0.0, 0.0, 0.57008998445, 1.12522482765, -10.0283195166
4.47273111343, 0.504613609962, 0.983215240349, -14.0374288308, 0.6975077879, 0.69092752575, -9.83749191425, 0.0, 0.0, 0.0, 0.5826523031, 1.1078768638, -10.0348997787
4.52294397354, 0.510523252697, 0.999246121449, -14.0385981206, 0.71724857435, 0.71365934045, -9.8632147572, 0.0, 0.0, 0.0, 0.5850451257, 1.1832507757, -10.0229356657
4.57322311401, 0.505748800002, 1.0131271716, -14.0331543133, 0.7022934331, 0.75194450205, -9.846464999, 0.0, 0.0, 0.0, 0.56769716185, 1.1413763802, -10.0301141335
4.62342190742, 0.508725753544, 0.99775521842, -14.0353888602, 0.7118647235, 0.669990328, -9.86381296285, 0.0, 0.0, 0.0, 0.57248280705, 1.0983055734, -10.012167964
4.67375993729, 0.501441606694, 0.988533735237, -14.0398029203, 0.70887369525, 0.7405785947, -9.85543808375, 0.0, 0.0, 0.0, 0.53419764545, 1.0995019847, -10.0462656861
4.72409200668, 0.50315605243, 0.985247263781, -14.0449208813, 0.70528446135, 0.7166503687, -9.8620183459, 0.0, 0.0, 0.0, 0.57487562965, 1.0492527101, -10.0043912906
4.77428388596, 0.49805316632, 0.976761890064, -14.0455498214, 0.6951149653, 0.70648087265, -9.85902731765, 0.0, 0.0, 0.0, 0.5527420206, 1.0480562988, -10.0384890127
4.82448410988, 0.506609876717, 0.98359618602, -14.0498623708, 0.7322037156, 0.7549355303, -9.88534836625, 0.0, 0.0, 0.0, 0.5754738353, 1.12881406155, -10.0205428432
4.87463307381, 0.506884778937, 0.971688824635, -14.0576038966, 0.7262216591, 0.70528446135, -9.8476614103, 0.0, 0.0, 0.0, 0.574277424, 1.0959127508, -10.0594262104
4.92591691017, 0.506139317374, 0.958299859157, -14.0383672305, 0.7094719009, 0.7477570625, -9.8620183459, 0.0, 0.0, 0.0, 0.57248280705, 1.08574325475, -10.0079805245
4.97634601593, 0.508989857495, 0.978815095504, -14.042773971, 0.70887369525, 0.72323063085, -9.8428757651, 0.0, 0.0, 0.0, 0.58325050875, 1.15274228755, -10.0325069561
5.02654099464, 0.500835616623, 0.984765026166, -14.0447450039, 0.6951149653, 0.7106683122, -9.8608219346, 0.0, 0.0, 0.0, 0.5539384319, 1.09052889995, -10.0151589923
5.07672190666, 0.496767383979, 0.979733047958, -14.051785681, 0.72681986475, 0.73878397775, -9.89133042275, 0.0, 0.0, 0.0, 0.5575276658, 1.1401799689, -10.03609619
5.12692594528, 0.504321573575, 0.973359335531, -14.0453790301, 0.71844498565, 0.73160550995, -9.8500542329, 0.0, 0.0, 0.0, 0.5790630692, 1.0923235169, -10.0265248996
5.1771709919, 0.504835515628, 0.971082635282, -14.0434766294, 0.71007010655, 0.71365934045, -9.8500542329, 0.0, 0.0, 0.0, 0.5886343596, 1.1282158559, -10.0008020567
5.2274749279, 0.506767162242, 0.966117211233, -14.0430424686, 0.71007010655, 0.705882667, -9.87338425325, 0.0, 0.0, 0.0, 0.58085768615, 1.100698396, -10.0265248996
5.27770709991, 0.506569359573, 0.975205350106, -14.045494342, 0.71724857435, 0.7262216591, -9.86142014025, 0.0, 0.0, 0.0, 0.5670989562, 1.10608224685, -10.0253284884
5.32788395882, 0.496879970401, 0.976980763118, -14.0460251612, 0.7022934331, 0.7034898444, -9.88893760015, 0.0, 0.0, 0.0, 0.5407779076, 1.11086789205, -10.0133643753
5.37803006172, 0.497014155286, 0.975972761976, -14.041338822, 0.69332034835, 0.7070790783, -9.85902731765, 0.0, 0.0, 0.0, 0.57008998445, 1.09052889995, -10.0271231053
5.42819404602, 0.495662253677, 0.985386221427, -14.0416695709, 0.70408805005, 0.7094719009, -9.84108114815, 0.0, 0.0, 0.0, 0.5599204884, 1.13001047285, -10.0277213109
5.47846293449, 0.498334355399, 0.979716636818, -14.0409811792, 0.7106683122, 0.7034898444, -9.8727860476, 0.0, 0.0, 0.0, 0.56650075055, 1.0995019847, -10.025926694
5.52872109413, 0.502336158635, 0.981829509833, -14.0414671886, 0.71126651785, 0.7118647235, -9.85304526115, 0.0, 0.0, 0.0, 0.57487562965, 1.1306086785, -10.0408818352
5.57904696465, 0.501782001358, 0.979410196317, -14.033940067, 0.70648087265, 0.7070790783, -9.84347397075, 0.0, 0.0, 0.0, 0.57128639575, 1.1353943237, -10.0390872183
5.62932491302, 0.507121070277, 0.974767256103, -14.0381891923, 0.7154539574, 0.7166503687, -9.8333044747, 0.0, 0.0, 0.0, 0.562313311, 1.09411813385, -10.0354979844
5.67959094048, 0.503584558261, 0.96189302003, -14.0389887295, 0.7046862557, 0.69092752575, -9.8596255233, 0.0, 0.0, 0.0, 0.5778666579, 1.100698396, -10.0229356657
5.72987794876, 0.507352227433, 1.01230481679, -14.0322900098, 0.7190431913, 0.7872386354, -9.8368937086, 0.0, 0.0, 0.0, 0.58923256525, 1.20538438475, -10.0205428432
5.78017497063, 0.499022110305, 0.984412557211, -14.0415366502, 0.69571317095, 0.71246292915, -9.87816989845, 0.0, 0.0, 0.0, 0.5599204884, 1.0636096457, -10.0247302827
5.83053708076, 0.498866583236, 0.973860665007, -14.0488440889, 0.7274180704, 0.69092752575, -9.882357338, 0.0, 0.0, 0.0, 0.55334022625, 1.0911271056, -10.0193464318
5.88080596924, 0.504046855808, 0.976423052274, -14.0422540498, 0.7250252478, 0.6496513359, -9.85543808375, 0.0, 0.0, 0.0, 0.58803615395, 1.17427769095, -10.0468638917
5.93108987808, 0.498302283676, 0.978308088426, -14.0464771008, 0.6903293201, 0.68255264665, -9.87458066455, 0.0, 0.0, 0.0, 0.5551348432, 1.12522482765, -10.0456674804
5.9812939167, 0.504623351757, 0.991946512258, -14.0500264243, 0.7034898444, 0.7561319416, -9.85783090635, 0.0, 0.0, 0.0, 0.57966127485, 1.1066804525, -10.0474620974
6.0315220356, 0.503116363295, 0.995414184667, -14.050415142, 0.69690958225, 0.7621139981, -9.8333044747, 0.0, 0.0, 0.0, 0.574277424, 1.10368942425, -10.0492567143
6.08182907104, 0.499269648183, 1.00998483921, -14.0451606352, 0.69092752575, 0.71365934045, -9.8572327007, 0.0, 0.0, 0.0, 0.57367921835, 1.09172531125, -10.0127661697
6.13207292557, 0.494525735026, 0.993951646906, -14.0422301444, 0.7022934331, 0.71126651785, -9.83629550295, 0.0, 0.0, 0.0, 0.55812587145, 1.08933248865, -10.0331051618
6.182336092, 0.491871527864, 0.992606506783, -14.038546872, 0.68853470315, 0.7202396026, -9.85543808375, 0.0, 0.0, 0.0, 0.574277424, 1.0923235169, -9.9984092341
6.23264098167, 0.494763704908, 0.998627607866, -14.0364617006, 0.6879364975, 0.76989067155, -9.8404829425, 0.0, 0.0, 0.0, 0.5814558918, 1.0983055734, -10.0061859075
6.28287601471, 0.493976828459, 0.985930943641, -14.0328072192, 0.70289163875, 0.7202396026, -9.84586679335, 0.0, 0.0, 0.0, 0.58564333135, 1.09770736775, -10.0169536092
6.33315300941, 0.502447930477, 0.966472747131, -14.0369693734, 0.7154539574, 0.6364908116, -9.85902731765, 0.0, 0.0, 0.0, 0.574277424, 1.1234302107, -10.0163554036
6.38348293304, 0.502721800684, 0.97029135316, -14.0426519017, 0.70767728395, 0.7094719009, -9.8512506442, 0.0, 0.0, 0.0, 0.5730810127, 1.124626622, -10.0247302827
6.43391489983, 0.497462617289, 0.982266112357, -14.0443674708, 0.7094719009, 0.7477570625, -9.86740219675, 0.0, 0.0, 0.0, 0.54376893585, 1.09890377905, -10.0289177222
6.48409700394, 0.493533136903, 0.992279307957, -14.050625703, 0.7154539574, 0.76390861505, -9.86142014025, 0.0, 0.0, 0.0, 0.55214381495, 1.14795664235, -10.0313105448
6.5343170166, 0.490472657153, 0.998289336919, -14.0529853706, 0.69690958225, 0.74237321165, -9.89133042275, 0.0, 0.0, 0.0, 0.54855458105, 1.15393869885, -10.0175518149
6.5844669342, 0.488758462506, 0.985623015571, -14.046223564, 0.7106683122, 0.7154539574, -9.84825961595, 0.0, 0.0, 0.0, 0.5455635528, 1.0995019847, -10.048060303
6.63471102715, 0.492799083212, 0.985546387636, -14.0466301031, 0.7046862557, 0.71605216305, -9.85065243855, 0.0, 0.0, 0.0, 0.57846486355, 1.14197458585, -10.0151589923
6.68503499031, 0.497471816897, 0.977248258243, -14.0460276336, 0.71605216305, 0.62751772685, -9.8799645154, 0.0, 0.0, 0.0, 0.5670989562, 1.14197458585, -10.0181500206
6.73528790474, 0.498490773927, 1.00330137236, -14.0477011363, 0.71365934045, 0.765703232, -9.8668039911, 0.0, 0.0, 0.0, 0.5838487144, 1.148554848, -10.0408818352
6.78560209274, 0.493244063581, 0.997193184364, -14.0448278859, 0.7118647235, 0.7441678286, -9.8452685877, 0.0, 0.0, 0.0, 0.5647061336, 1.13599252935, -10.0151589923
6.83587193489, 0.489637975156, 0.998563431092, -14.0442217806, 0.68853470315, 0.73399833255, -9.8392865312, 0.0, 0.0, 0.0, 0.5694917788, 1.0827522265, -10.0594262104
6.88607001305, 0.484993881184, 1.01866034311, -14.0376713491, 0.6867400862, 0.7465606512, -9.8380901199, 0.0, 0.0, 0.0, 0.5551348432, 1.13120688415, -10.0372926013
6.93627905846, 0.48375940269, 0.998244623748, -14.0387290782, 0.7106683122, 0.6640082715, -9.85783090635, 0.0, 0.0, 0.0, 0.5491527867, 1.13958176325, -10.0217392544
6.98641300201, 0.504473962825, 0.988880505066, -14.0532894932, 0.7070790783, 0.69930240485, -9.85424167245, 0.0, 0.0, 0.0, 0.6065805291, 1.088734283, -10.0396854239
7.03667497635, 0.505334501494, 0.989837703263, -14.0531276026, 0.71605216305, 0.75433732465, -9.87936630975, 0.0, 0.0, 0.0, 0.5778666579, 1.09052889995, -10.0337033674
7.08699202538, 0.498018603138, 1.00130675017, -14.0592623991, 0.70887369525, 0.71007010655, -9.8787681041, 0.0, 0.0, 0.0, 0.54376893585, 1.17068845705, -10.0522477426
7.13720989227, 0.48604317367, 0.98966621764, -14.0398300476, 0.68733829185, 0.66341006585, -9.8488578216, 0.0, 0.0, 0.0, 0.5455635528, 1.1330015011, -9.99900743975
7.18746399879, 0.487016923196, 0.994268489206, -14.0418142655, 0.68733829185, 0.71844498565, -9.8428757651, 0.0, 0.0, 0.0, 0.57607204095, 1.14077817455, -10.0504531256
7.23762702942, 0.497847818837, 0.987461195353, -14.029844648, 0.7046862557, 0.6867400862, -9.84347397075, 0.0, 0.0, 0.0, 0.5922235935, 1.1150553316, -9.99900743975
7.28785991669, 0.492937060278, 0.987926681343, -14.0327377696, 0.6975077879, 0.70528446135, -9.8620183459, 0.0, 0.0, 0.0, 0.5455635528, 1.0803594039, -10.0283195166
7.33811688423, 0.489222024578, 0.98626664644, -14.0383445981, 0.69810599355, 0.7238288365, -9.85543808375, 0.0, 0.0, 0.0, 0.54975099235, 1.14197458585, -10.0492567143
7.38827395439, 0.488127692882, 0.984878455252, -14.043712652, 0.681954441, 0.6592226263, -9.87577707585, 0.0, 0.0, 0.0, 0.5682953675, 1.1318050898, -10.0354979844
7.43858098984, 0.504327911351, 0.990302417117, -14.0354620925, 0.70289163875, 0.7094719009, -9.8356972973, 0.0, 0.0, 0.0, 0.5802594805, 1.1162517429, -10.025926694
7.48883199692, 0.493312628087, 0.986693116055, -14.0241070106, 0.67896341275, 0.69451675965, -9.8237331843, 0.0, 0.0, 0.0, 0.5407779076, 1.1353943237, -9.9816594759
7.53917598724, 0.48296702423, 0.985467020876, -14.0304070084, 0.66699929975, 0.71784678, -9.81834933345, 0.0, 0.0, 0.0, 0.50189454035, 1.09052889995, -10.0037930849
7.58960795403, 0.422615020023, 0.982889295682, -14.0166191186, 0.6448656907, 0.69810599355, -9.81954574475, 0.0, 0.0, 0.0, 0.47318066915, 1.08335043215, -9.9924271776
7.63988399506, 0.395566388817, 0.989050212361, -14.0050712691, 0.61435720255, 0.7633104094, -9.8069834261, 0.0, 0.0, 0.0, 0.4438685923, 1.13838535195, -9.98345409285
7.69039487839, 0.282265724874, 1.00185540947, -14.0048657302, 0.46959143525, 0.6975077879, -9.8356972973, 0.0, 0.0, 0.0, 0.3625126239, 1.160518961, -9.9936235889
7.74074292183, 0.168297779945, 1.02623150828, -14.0060632385, 0.41814574935, 0.80697942185, -9.84227755945, 0.0, 0.0, 0.0, 0.28414768375, 1.16829563445, -10.0343015731
7.79105091095, 0.0, 1.05551253423, -14.001528033, 0.2919243572, 0.8111668614, -9.82911703515, 0.0, 0.0, 0.0, 0.18484554585, 1.19940232825, -9.9948200002
7.84122204781, 0.0, 1.04384135086, -14.0210859697, 0.10468598875, 0.71485575175, -9.89731247925, 0.0, 0.0, 0.0, -0.0263210486, 1.1282158559, -9.9816594759
7.8914129734, -0.225907745006, 1.09356682198, -14.0180223816, 0.0131605243, 0.82372918005, -9.8811609267, 0.0, 0.0, 0.0, -0.1950150419, 1.2215359373, -10.0666046782
7.94168591499, -0.561599787542, 1.14341097693, -14.0122759259, -0.31405796625, 0.9188438784, -9.88415195495, 0.0, 0.0, 0.0, -0.48275195955, 1.29032958705, -9.966106129
7.99184799194, -0.810459802676, 1.18145182563, -14.0081726533, -0.49710889515, 0.85363946255, -9.84706320465, 0.0, 0.0, 0.0, -0.6664010941, 1.33100757125, -9.9948200002
8.04209709167, -1.2544976929, 1.25228356214, -13.9988621484, -0.8470592004, 0.9487541609, -9.8093762487, 0.0, 0.0, 0.0, -1.02472627845, 1.40159583795, -9.9517491934
8.09228992462, -1.74221145229, 1.32209143278, -13.9755304082, -1.19940232825, 1.03190474625, -9.80399239785, 0.0, 0.0, 0.0, -1.411765334, 1.40398866055, -9.93021379
8.14246702194, -2.10263054471, 1.39583945235, -13.9553892529, -1.5050854154, 1.1461620254, -9.7962157244, 0.0, 0.0, 0.0, -1.6785650539, 1.49491591935, -9.9278209674
8.19268488884, -2.66006302312, 1.46471559622, -13.9003699131, -1.9214365478, 1.0827522265, -9.7459664498, 0.0, 0.0, 0.0, -2.0518453795, 1.55832571825, -9.9385886691
8.2429049015, -3.19932379073, 1.56913671931, -13.8254748626, -2.28215455475, 1.15992075535, -9.6813602396, 0.0, 0.0, 0.0, -2.43170596725, 1.5840485612, -9.81057266
8.29312109947, -3.54236454086, 1.59529292541, -13.7688386644, -2.5016960283, 1.09172531125, -9.62333429155, 0.0, 0.0, 0.0, -2.62911383175, 1.64566374315, -9.80040316395
8.343282938, -4.03679331072, 1.69909254532, -13.6706137206, -2.84686068835, 1.20897361865, -9.52403215365, 0.0, 0.0, 0.0, -3.0017959517, 1.78803668785, -9.6562356023
8.39347791672, -4.55942135173, 1.75740866099, -13.5428970758, -3.21774819135, 1.27477624015, -9.415756931, 0.0, 0.0, 0.0, -3.3631121643, 1.7647066675, -9.559326287
8.44365310669, -4.92682793807, 1.79691563098, -13.4461317649, -3.47019097565, 1.30109728875, -9.3487578982, 0.0, 0.0, 0.0, -3.6550365215, 1.74496588105, -9.48096134685
8.49380087852, -5.4076862858, 1.82081821296, -13.291072671, -3.76211533285, 1.32622192605, -9.2530449942, 0.0, 0.0, 0.0, -3.89850622105, 1.78923309915, -9.3906322937
8.54410910606, -5.69909072814, 1.8487373521, -13.1807956419, -3.9158541849, 1.3339985995, -9.164510558, 0.0, 0.0, 0.0, -4.09591408555, 1.7204394494, -9.2793660428
8.59432601929, -6.10671404891, 1.84189661539, -13.0351844941, -4.19880545735, 1.2574282763, -9.0460658393, 0.0, 0.0, 0.0, -4.36032098285, 1.69471660645, -9.18066211055
8.64450502396, -6.49234241156, 1.85903343416, -12.8890805892, -4.45483747555, 1.33698962775, -8.9479601127, 0.0, 0.0, 0.0, -4.61156735585, 1.72582330025, -9.11007384385
8.69481396675, -6.74596139115, 1.85963853137, -12.7960864755, -4.6313081423, 1.31186499045, -8.86959517255, 0.0, 0.0, 0.0, -4.79581469605, 1.7371892076, -9.04187839975
8.74509501457, -7.08781041815, 1.85273416607, -12.6550296302, -4.84726038195, 1.26281212715, -8.77148944595, 0.0, 0.0, 0.0, -4.9830530645, 1.71984124375, -8.9682991048
8.79534006119, -7.28278234036, 1.8155002277, -12.5833903907, -4.92622352775, 1.22093773165, -8.87797005165, 0.0, 0.0, 0.0, -5.0835516137, 1.69471660645, -8.89591622115
8.84556698799, -7.50670247807, 1.73429969596, -12.4424458832, -5.01595437525, 1.1425727915, -8.63868779165, 0.0, 0.0, 0.0, -5.18464836855, 1.60259293635, -8.8043907567
8.89572095871, -7.6800997326, 1.67102215177, -12.3204534837, -5.1194439527, 1.1222337994, -8.5579300289, 0.0, 0.0, 0.0, -5.23011199795, 1.52961184705, -8.745766603
8.94598197937, -7.74577926902, 1.60132480204, -12.2538633953, -5.11525651315, 1.04506527055, -8.54177847635, 0.0, 0.0, 0.0, -5.22173711885, 1.4871392459, -8.72602581655
8.99619793892, -7.79957647153, 1.46917552394, -12.1891746982, -5.10329240015, 0.9906285564, -8.5052879317, 0.0, 0.0, 0.0, -5.24566534485, 1.2490533972, -8.71047246965
9.04641008377, -7.78205377448, 1.34890503128, -12.1541479077, -5.03031131085, 0.84167534955, -8.50947537125, 0.0, 0.0, 0.0, -5.16550578775, 1.31186499045, -8.6883388606
9.09673404694, -7.63904229625, 1.2505709713, -12.1736229044, -4.89631324525, 0.7932206919, -8.5627156741, 0.0, 0.0, 0.0, -4.97407997975, 1.25324083675, -8.77148944595
9.14695096016, -7.53176289064, 1.15670717634, -12.1949243469, -4.7665026192, 0.75194450205, -8.578269021, 0.0, 0.0, 0.0, -4.89631324525, 1.13120688415, -8.805587168
9.19716095924, -7.3256016129, 1.06859722709, -12.2667536785, -4.59242477505, 0.6951149653, -8.6715891024, 0.0, 0.0, 0.0, -4.6971107638, 1.05344014965, -8.8725862008
9.24735593796, -7.03897028359, 0.982767268751, -12.3822173543, -4.3082770913, 0.6352944003, -8.7649091838, 0.0, 0.0, 0.0, -4.44406977385, 1.05702938355, -8.97727218955
9.29754400253, -6.8136795147, 0.910563510657, -12.4838027418, -4.13898489235, 0.62632131555, -8.82054230925, 0.0, 0.0, 0.0, -4.2281175342, 1.01754781065, -9.08734202915
9.34775304794, -6.40185673756, 0.861319712936, -12.6430162282, -3.7615171272, 0.60119667825, -8.9886380969, 0.0, 0.0, 0.0, -3.89850622105, 1.02951192365, -9.20459033655
9.39792490005, -6.10531027955, 0.826489712058, -12.75517247, -3.4384860762, 0.56530433925, -9.1118684608, 0.0, 0.0, 0.0, -3.5617164401, 0.9762716208, -9.34217763605
9.44815587997, -5.62841341217, 0.805480965502, -12.9264081959, -3.17587379585, 0.5312066172, -9.1513500337, 0.0, 0.0, 0.0, -3.3116664784, 1.04506527055, -9.4360959231
9.49831390381, -5.10320071003, 0.780521794308, -13.0994122353, -2.7864419177, 0.5084748025, -9.31466017615, 0.0, 0.0, 0.0, -2.89950278555, 0.9595218626, -9.54437114575
9.54857110977, -4.72034549128, 0.764696982835, -13.2027527224, -2.4945175605, 0.58444692005, -9.38405203155, 0.0, 0.0, 0.0, -2.596212521, 0.8781658942, -9.58265630735
9.59877705574, -4.12565487835, 0.764669359885, -13.365377088, -2.0638094925, 0.5659025449, -9.5138626576, 0.0, 0.0, 0.0, -2.16729906995, 0.9415756931, -9.68913691305
9.64897489548, -3.71845675466, 0.768901450409, -13.4669033708, -1.76291205055, 0.5706881901, -9.56949578305, 0.0, 0.0, 0.0, -1.87896394665, 0.9439685157, -9.7411808046
9.69923400879, -3.11490537602, 0.79811862479, -13.5857020161, -1.3543375916, 0.538385085, -9.6023970938, 0.0, 0.0, 0.0, -1.46380922555, 1.0360921858, -9.8213403617
9.74946188927, -2.7073935305, 0.832236290671, -13.6691871533, -1.07018990785, 0.634097989, -9.6765745944, 0.0, 0.0, 0.0, -1.16350998925, 1.0695917022, -9.8739824589
9.79979491234, -2.08951942846, 0.87037495311, -13.7531451997, -0.63349978335, 0.669990328, -9.7040920543, 0.0, 0.0, 0.0, -0.7393821834, 1.0552347666, -9.89372324535
9.84999799728, -1.45647445489, 0.917291445851, -13.822517827, -0.15732808595, 0.66939212235, -9.75374312325, 0.0, 0.0, 0.0, -0.2703889538, 1.1330015011, -9.9086783866
9.90018606186, -1.03943816684, 0.927479031723, -13.857623594, 0.10229316615, 0.6640082715, -9.76690364755, 0.0, 0.0, 0.0, 0.0143569356, 1.0947163395, -9.9517491934
9.95049500465, -0.43013363362, 0.955031522639, -13.8517189298, 0.50668018555, 0.73160550995, -9.72502925205, 0.0, 0.0, 0.0, 0.4103690759, 1.07497555305, -9.8644111685
10.0006918907, 0.187908805219, 0.981243417339, -13.8294845657, 0.91226361625, 0.74237321165, -9.70469025995, 0.0, 0.0, 0.0, 0.8075776275, 1.15154587625, -9.85304526115
10.0508849621, 0.570462284575, 0.989816495496, -13.8061019352, 1.3232308978, 0.73998038905, -9.6358966102, 0.0, 0.0, 0.0, 1.21375926385, 1.1377871463, -9.9493563708
10.1011579037, 1.12942633697, 1.00182592379, -13.7609571968, 1.5625131578, 0.73639115515, -9.6107719729, 0.0, 0.0, 0.0, 1.4488540843, 1.1174481542, -9.77527852665
10.151403904, 1.48345957284, 0.986836237675, -13.7136682864, 1.7958133613, 0.75074809075, -9.57906707345, 0.0, 0.0, 0.0, 1.6618152957, 1.03908321405, -9.75135030065
10.2016179562, 1.97605109408, 1.01400846481, -13.6286330959, 2.0961125976, 0.7812565789, -9.56112090395, 0.0, 0.0, 0.0, 1.98305172975, 1.11206430335, -9.6382894328
10.2518510818, 2.41329219098, 1.00089666107, -13.5580146484, 2.37188540225, 0.7130611348, -9.4660062056, 0.0, 0.0, 0.0, 2.22592322365, 1.0875378717, -9.62811993675
10.3020250797, 2.79417355683, 0.976259535704, -13.4925560797, 2.60159637185, 0.7238288365, -9.42114078185, 0.0, 0.0, 0.0, 2.4382862294, 1.04147603665, -9.6035935051
10.3522229195, 3.01426889008, 0.945374315271, -13.4402232531, 2.72841596965, 0.69092752575, -9.403792818, 0.0, 0.0, 0.0, 2.56331121025, 1.0025926694, -9.53001421015
10.4024479389, 3.215343634, 0.918220569825, -13.3771489145, 2.8486553053, 0.6771687958, -9.34696328125, 0.0, 0.0, 0.0, 2.6907290137, 0.98763752815, -9.47139005645
10.4527170658, 3.47478470231, 0.895077446534, -13.3281155488, 2.9718856692, 0.66819571105, -9.3212404383, 0.0, 0.0, 0.0, 2.82532528495, 1.0205388389, -9.4683990282
10.5029559135, 3.60619647261, 0.8828208101, -13.3041509915, 3.02034032685, 0.68135623535, -9.33858840215, 0.0, 0.0, 0.0, 2.8737799426, 0.9846464999, -9.4839523751
10.5532579422, 3.74603027752, 0.83503128595, -13.2766283705, 3.07417883535, 0.61316079125, -9.3236332609, 0.0, 0.0, 0.0, 2.907279459, 0.969093153, -9.4600241491
10.603482008, 3.81649110041, 0.79646680351, -13.2930815029, 3.06460754495, 0.6173482308, -9.35533816035, 0.0, 0.0, 0.0, 2.89830637425, 0.909272588, -9.5401837062
10.6553189754, 3.83497936222, 0.763185758958, -13.2912736462, 3.0436703472, 0.574277424, -9.3487578982, 0.0, 0.0, 0.0, 2.88155661605, 0.82971123655, -9.487541609
10.7055590153, 3.82018406172, 0.732799762323, -13.31685055, 3.03709008505, 0.54257252455, -9.35892739425, 0.0, 0.0, 0.0, 2.84925351095, 0.90867438235, -9.5641119322
10.7557899952, 3.77360716069, 0.713990085318, -13.3427791411, 2.9527430884, 0.54017970195, -9.36490945075, 0.0, 0.0, 0.0, 2.78823653465, 0.84885381735, -9.54437114575
10.8060019016, 3.70809767649, 0.665737783664, -13.3689601949, 2.8749763539, 0.3421736318, -9.39242691065, 0.0, 0.0, 0.0, 2.73200520355, 0.9080761767, -9.59701324295
10.8562231064, 3.55921680611, 0.597242599617, -13.4236919785, 2.69611286455, 0.37148570865, -9.475577496, 0.0, 0.0, 0.0, 2.52622245995, 0.78664042975, -9.6275217311
10.9064800739, 3.38046757528, 0.567496779863, -13.4871711665, 2.5950161097, 0.3936193177, -9.50130033895, 0.0, 0.0, 0.0, 2.43170596725, 0.7513462964, -9.70110102605
10.9567229748, 3.24222778471, 0.533560018289, -13.536380981, 2.47238395145, 0.3601198013, -9.54197832315, 0.0, 0.0, 0.0, 2.2959132847, 0.7633104094, -9.71067231645
11.0069489479, 3.03338360304, 0.480059293376, -13.6122225657, 2.3186450994, 0.34157542615, -9.61974505765, 0.0, 0.0, 0.0, 2.15354034, 0.68853470315, -9.8069834261
11.0572180748, 2.79379957478, 0.407540975681, -13.6822269692, 2.12542467445, 0.3146561719, -9.643075078, 0.0, 0.0, 0.0, 1.96031991505, 0.6472585133, -9.85424167245
11.1073861122, 2.63476051679, 0.391880296861, -13.7317754344, 2.0398812665, 0.2967100024, -9.69870820345, 0.0, 0.0, 0.0, 1.86101777715, 0.6999006105, -9.89491965665
11.1575698853, 2.44043870732, 0.375617699419, -13.7755180898, 1.8592231602, 0.3158525832, -9.7112705221, 0.0, 0.0, 0.0, 1.63489604145, 0.5910271822, -9.92243711655
11.2077760696, 2.23936571694, 0.333846488408, -13.830642824, 1.722832272, 0.18604195715, -9.7710910871, 0.0, 0.0, 0.0, 1.495514125, 0.60119667825, -9.9708917742
11.2579929829, 1.92853661919, 0.308164624573, -13.9004492461, 1.49013027415, 0.26380869165, -9.7962157244, 0.0, 0.0, 0.0, 1.3088739622, 0.57367921835, -10.013962581
11.3082079887, 1.73503101314, 0.29608624328, -13.9451416631, 1.3459627125, 0.2368894374, -9.8261260069, 0.0, 0.0, 0.0, 1.18265257005, 0.5611168997, -9.99781102845
11.3584210873, 1.46120420041, 0.257101913729, -13.9765414316, 1.1952148887, 0.17647066675, -9.8309116521, 0.0, 0.0, 0.0, 1.0336993632, 0.610169763, -10.0582297991
11.4086780548, 1.27950870516, 0.225210286528, -14.0183547683, 1.0576275892, 0.08075776275, -9.8680004024, 0.0, 0.0, 0.0, 0.8925228298, 0.5826523031, -10.0935239324
11.4589080811, 1.0394532613, 0.236508778082, -14.0573284751, 0.92183490665, 0.1878365741, -9.8835537493, 0.0, 0.0, 0.0, 0.7501498851, 0.6281159325, -10.0983095776
11.5090889931, 0.89651515629, 0.238591584918, -14.0807332733, 0.8338986761, 0.19082760235, -9.906285564, 0.0, 0.0, 0.0, 0.66939212235, 0.6041877065, -10.0923275211
11.5593481064, 0.693671459993, 0.236101131624, -14.0960144397, 0.7070790783, 0.19680965885, -9.88893760015, 0.0, 0.0, 0.0, 0.57487562965, 0.6113661743, -10.0773723799
11.6103909016, 0.530885586271, 0.238559467984, -14.0961718057, 0.62991054945, 0.20877377185, -9.89611606795, 0.0, 0.0, 0.0, 0.4677968183, 0.6245266986, -10.0845508477
11.6608068943, 0.428990043706, 0.256485442393, -14.1071095473, 0.56051869405, 0.22432711875, -9.89611606795, 0.0, 0.0, 0.0, 0.38584264425, 0.6436692794, -10.0905329042
11.7109930515, 0.306309494727, 0.260105172113, -14.1333401871, 0.48753760475, 0.26380869165, -9.88893760015, 0.0, 0.0, 0.0, 0.3326023414, 0.60957155735, -10.1018988115
11.7612020969, 0.249258519322, 0.28168868952, -14.129985664, 0.47437708045, 0.227318147, -9.894321451, 0.0, 0.0, 0.0, 0.32602207925, 0.6257231099, -10.1204431867
11.8114109039, 0.188247958984, 0.291501737119, -14.1350392929, 0.46959143525, 0.2117648001, -9.88893760015, 0.0, 0.0, 0.0, 0.3254238736, 0.6687939167, -10.1431750014
11.8617460728, 0.157105742664, 0.314588997778, -14.1256878491, 0.46360937875, 0.2404786713, -9.89611606795, 0.0, 0.0, 0.0, 0.31166514365, 0.67178494495, -10.0743813517
11.9121670723, 0.175394913343, 0.336916138022, -14.1366327354, 0.46839502395, 0.3098705267, -9.91765147135, 0.0, 0.0, 0.0, 0.3361915753, 0.7166503687, -10.1174521584
11.9624729156, 0.191932192071, 0.383291195796, -14.1287439313, 0.5204389155, 0.28534409505, -9.90449094705, 0.0, 0.0, 0.0, 0.3852444386, 0.7860422241, -10.0941221381
12.0128779411, 0.222181303496, 0.39498109469, -14.1235413799, 0.56171510535, 0.28534409505, -9.906285564, 0.0, 0.0, 0.0, 0.42293139455, 0.72323063085, -10.0785687912
12.063117981, 0.264530419301, 0.421573859049, -14.1157091279, 0.60119667825, 0.3290131075, -9.89372324535, 0.0, 0.0, 0.0, 0.46002014485, 0.77108708285, -10.0761759686
12.1133890152, 0.347930260961, 0.458942408753, -14.0999582546, 0.6508477472, 0.30089744195, -9.8644111685, 0.0, 0.0, 0.0, 0.54616175845, 0.7992027484, -10.0576315934
12.1637198925, 0.404915589718, 0.467782717269, -14.0881894487, 0.7429714173, 0.3756731482, -9.8931250397, 0.0, 0.0, 0.0, 0.48275195955, 0.7585247642, -10.0384890127
12.2139210701, 0.54541073805, 0.488835610848, -14.0849545333, 0.8781658942, 0.36311082955, -9.8572327007, 0.0, 0.0, 0.0, 0.7034898444, 0.7824529902, -10.085747259
12.2642190456, 0.646153544647, 0.546652495781, -14.0688498792, 0.93379901965, 0.5754738353, -9.8416793538, 0.0, 0.0, 0.0, 0.7836494015, 0.82013994615, -10.0510513313
12.314426899, 0.749607822586, 0.564617353896, -14.0542211384, 0.99840522985, 0.4295116567, -9.84227755945, 0.0, 0.0, 0.0, 0.8578269021, 0.8566304908, -10.0247302827
12.3646519184, 0.9231910034, 0.573100440021, -14.0297173319, 1.12881406155, 0.43968115275, -9.83629550295, 0.0, 0.0, 0.0, 1.00797652025, 0.82253276875, -9.99302538325
12.4147999287, 1.08998084348, 0.588935000661, -14.0072361802, 1.2490533972, 0.4486542375, -9.80279598655, 0.0, 0.0, 0.0, 1.10608224685, 0.8470592004, -9.9924271776
12.4651470184, 1.19830260215, 0.610267407953, -13.9946795286, 1.32143628085, 0.5228317381, -9.81595651085, 0.0, 0.0, 0.0, 1.1904292435, 0.8590233134, -9.98943614935
12.5156049728, 1.36702676887, 0.606247582682, -13.9671439225, 1.44347023345, 0.4402793584, -9.7938229018, 0.0, 0.0, 0.0, 1.30827575655, 0.8303094422, -9.95474022165
12.5660150051, 1.4670866474, 0.606787515267, -13.9448480298, 1.495514125, 0.490528633, -9.76451082495, 0.0, 0.0, 0.0, 1.35134656335, 0.8195417405, -9.9469635482
12.6164619923, 1.61948637525, 0.59998396275, -13.9168652477, 1.6127624324, 0.45882373355, -9.73460054245, 0.0, 0.0, 0.0, 1.4512469069, 0.78903325235, -9.9326066126
12.6668250561, 1.71299937269, 0.609763967538, -13.9166802369, 1.6821542878, 0.4821537539, -9.7411808046, 0.0, 0.0, 0.0, 1.5134602945, 0.86201434165, -9.96550792335
12.7171370983, 1.85020048043, 0.582948642732, -13.8867400835, 1.7515461432, 0.42173498325, -9.72981489725, 0.0, 0.0, 0.0, 1.61216422675, 0.8362914987, -9.90209812445
12.7673420906, 1.95506299415, 0.580483196413, -13.8726081288, 1.80478644605, 0.4390829471, -9.7232346351, 0.0, 0.0, 0.0, 1.6666009409, 0.8159525066, -9.90209812445
12.8175520897, 2.04415949461, 0.579000962278, -13.8513955284, 1.8352949342, 0.43609191885, -9.7280202803, 0.0, 0.0, 0.0, 1.68035967085, 0.777667345, -9.8739824589
12.8677949905, 2.09229479188, 0.577894264534, -13.8531497498, 1.86341059975, 0.40977087025, -9.7471628611, 0.0, 0.0, 0.0, 1.75812640535, 0.7668996433, -9.8991070962
12.9182310104, 2.15111721148, 0.526091536038, -13.8351977406, 1.9166509026, 0.37986058775, -9.7136633447, 0.0, 0.0, 0.0, 1.75094793755, 0.72921268735, -9.84945602725
12.9684569836, 2.18782532065, 0.527929431919, -13.8262551265, 1.93040963255, 0.41934216065, -9.6777710057, 0.0, 0.0, 0.0, 1.80239362345, 0.7860422241, -9.87936630975
13.0187261105, 2.21504335911, 0.489186572326, -13.825864773, 1.92203475345, 0.37746776515, -9.6921279413, 0.0, 0.0, 0.0, 1.7611174336, 0.68733829185, -9.88415195495
13.0690391064, 2.21851977245, 0.478773621336, -13.8253014725, 1.9202401365, 0.3457628657, -9.70349384865, 0.0, 0.0, 0.0, 1.78085822005, 0.753739119, -9.87218784195
13.1192600727, 2.21909650119, 0.45944833835, -13.8245498181, 1.90648140655, 0.3529413335, -9.70349384865, 0.0, 0.0, 0.0, 1.7479569093, 0.67058853365, -9.86500937415
13.169451952, 2.19879709293, 0.449985446135, -13.8372311207, 1.88614241445, 0.34755748265, -9.73818977635, 0.0, 0.0, 0.0, 1.7335999737, 0.68255264665, -9.9086783866
13.2197039127, 2.17108079406, 0.436928543506, -13.8377209914, 1.8412769907, 0.3194418171, -9.7351987481, 0.0, 0.0, 0.0, 1.69471660645, 0.6723831506, -9.8680004024
13.2699739933, 2.11525296612, 0.419845886265, -13.8616974291, 1.8053846517, 0.29850461935, -9.72502925205, 0.0, 0.0, 0.0, 1.62652116235, 0.69451675965, -9.9314102013
13.3201849461, 2.07600153878, 0.426694534658, -13.8756475346, 1.75692999405, 0.3002992363, -9.7519485063, 0.0, 0.0, 0.0, 1.6283157793, 0.7525427077, -9.91765147135
13.3704259396, 2.0300175927, 0.410041091068, -13.8616420617, 1.71385918725, 0.30807590975, -9.7663054419, 0.0, 0.0, 0.0, 1.5936198516, 0.6735795619, -9.8129654826
13.4206619263, 1.93090371662, 0.376185829677, -13.8842127604, 1.6474583601, 0.3026920589, -9.7686982645, 0.0, 0.0, 0.0, 1.4608181973, 0.6305087551, -9.93559764085
13.4709010124, 1.84069638629, 0.395941811365, -13.9117613661, 1.57866471035, 0.28414768375, -9.76570723625, 0.0, 0.0, 0.0, 1.43030970915, 0.6795616184, -9.9924271776
13.5210809708, 1.77415099837, 0.374064782567, -13.9383380249, 1.54037954875, 0.2883351233, -9.79681393005, 0.0, 0.0, 0.0, 1.3686945272, 0.62632131555, -10.0115697584
13.5712630749, 1.67370819539, 0.356922268628, -13.9540722602, 1.46141640295, 0.2691925425, -9.7842516114, 0.0, 0.0, 0.0, 1.31904345825, 0.6855436749, -9.990034355
13.6214289665, 1.60509450631, 0.350341820242, -13.9716906083, 1.4045868662, 0.2237289131, -9.81476009955, 0.0, 0.0, 0.0, 1.26281212715, 0.66341006585, -10.0091769358
13.6722800732, 1.53458610876, 0.350571031958, -13.9808691684, 1.3722837611, 0.2823530668, -9.80638522045, 0.0, 0.0, 0.0, 1.1820543644, 0.6735795619, -10.0061859075
13.7230229378, 1.43534149505, 0.34282220485, -13.9922247558, 1.29750805485, 0.3146561719, -9.80159957525, 0.0, 0.0, 0.0, 1.1509476706, 0.63948183985, -10.0211410488
13.7733678818, 1.38425297593, 0.346484765817, -14.0029112966, 1.37168555545, 0.3062812928, -9.8237331843, 0.0, 0.0, 0.0, 1.06899349655, 0.65144595285, -10.0205428432
13.8235929012, 1.29069585312, 0.351151226448, -14.0174313853, 1.17068845705, 0.27457639335, -9.8404829425, 0.0, 0.0, 0.0, 1.0301101293, 0.66341006585, -10.0313105448
13.8739628792, 1.2221440962, 0.350204049159, -14.02244604, 1.15034946495, 0.2667997199, -9.8416793538, 0.0, 0.0, 0.0, 0.99481599595, 0.6628118602, -10.0073823188
13.9241418839, 1.15862413618, 0.340141227226, -14.0379102114, 1.10010019035, 0.2356930261, -9.8452685877, 0.0, 0.0, 0.0, 0.94695954395, 0.65383877545, -10.0725867347
13.9743070602, 1.08811840769, 0.355915830946, -14.0412341708, 1.0695917022, 0.3002992363, -9.8440721764, 0.0, 0.0, 0.0, 0.9296115801, 0.6352944003, -10.0540423596
14.0244810581, 1.0429557321, 0.369868441867, -14.0473924702, 1.03669039145, 0.26141586905, -9.8416793538, 0.0, 0.0, 0.0, 0.89910309195, 0.7034898444, -10.0372926013
14.0747380257, 1.00953992628, 0.372231959638, -14.0473255337, 1.00558369765, 0.1938186306, -9.84706320465, 0.0, 0.0, 0.0, 0.8578269021, 0.70767728395, -10.0384890127
14.1250898838, 0.957994405513, 0.369725726858, -14.0495222581, 0.99361958465, 0.27457639335, -9.8488578216, 0.0, 0.0, 0.0, 0.85603228515, 0.7070790783, -10.0564351822
14.1752550602, 0.931131262033, 0.366844991386, -14.0607119536, 0.99840522985, 0.2955135911, -9.8560362894, 0.0, 0.0, 0.0, 0.84047893825, 0.67178494495, -10.0522477426
14.225425005, 0.920349202555, 0.397832449467, -14.0707898065, 1.0109675485, 0.30089744195, -9.882357338, 0.0, 0.0, 0.0, 0.84287176085, 0.70648087265, -10.0881400816
14.2756400108, 0.913033204213, 0.383373233077, -14.065804327, 1.0001998468, 0.30807590975, -9.85065243855, 0.0, 0.0, 0.0, 0.83449688175, 0.6400800455, -10.0289177222
14.325961113, 0.91759742324, 0.380404285442, -14.0543949586, 1.004985492, 0.30807590975, -9.84227755945, 0.0, 0.0, 0.0, 0.8554340795, 0.6783652071, -10.0522477426
14.3763799667, 0.932410117393, 0.394124852131, -14.0549549666, 1.01635139935, 0.29850461935, -9.8500542329, 0.0, 0.0, 0.0, 0.87996051115, 0.72801627605, -10.0570333878
14.4267590046, 0.953604285041, 0.400432135799, -14.057861863, 1.0540383553, 0.311066938, -9.8476614103, 0.0, 0.0, 0.0, 0.90628155975, 0.73998038905, -10.0660064725
14.4772439003, 0.97930862945, 0.414671383456, -14.0443238713, 1.064806057, 0.30687949845, -9.846464999, 0.0, 0.0, 0.0, 0.92303131795, 0.7345965382, -10.0211410488
14.5277490616, 1.02067864604, 0.418931076089, -14.0322161701, 1.09651095645, 0.2919243572, -9.84945602725, 0.0, 0.0, 0.0, 0.9762716208, 0.76151579245, -10.025926694
14.5779230595, 1.07001420506, 0.438030233399, -14.0258154995, 1.15633152145, 0.3146561719, -9.83150985775, 0.0, 0.0, 0.0, 0.9942177903, 0.7154539574, -10.0337033674
14.628164053, 1.10112792352, 0.438138337459, -14.0250855945, 1.16590281185, 0.31166514365, -9.8297152408, 0.0, 0.0, 0.0, 1.03190474625, 0.7345965382, -10.0079805245
14.6786119938, 1.1425163958, 0.432911319046, -14.0170266166, 1.1784651305, 0.32841490185, -9.8368937086, 0.0, 0.0, 0.0, 1.04865450445, 0.73280192125, -10.0319087505
14.7290070057, 1.17859965226, 0.427241564936, -14.0079916994, 1.2358928729, 0.3170489945, -9.8165547165, 0.0, 0.0, 0.0, 1.0815558152, 0.74835526815, -10.0444710691
14.7792649269, 1.230047367, 0.442299712516, -14.0138030553, 1.2717852119, 0.33678978095, -9.84227755945, 0.0, 0.0, 0.0, 1.09292172255, 0.7274180704, -10.0558369765
14.8297040462, 1.28727262179, 0.433269102163, -14.0003724831, 1.31904345825, 0.36670006345, -9.7974121357, 0.0, 0.0, 0.0, 1.15393869885, 0.77706913935, -10.0091769358
14.8799259663, 1.31998310099, 0.425443095445, -13.9946342019, 1.3112667848, 0.33439695835, -9.80638522045, 0.0, 0.0, 0.0, 1.1904292435, 0.71007010655, -9.9768738307
14.9304659367, 1.37599821392, 0.461616563695, -13.9995113949, 1.35493579725, 0.3672982691, -9.77647493795, 0.0, 0.0, 0.0, 1.2239287599, 0.7680960546, -10.0187482262
14.9807651043, 1.42510920405, 0.471048069942, -13.9709830928, 1.40757789445, 0.3649054465, -9.77647493795, 0.0, 0.0, 0.0, 1.24247313505, 0.7489534738, -9.9445707256
15.0311141014, 1.45884216884, 0.484032042201, -13.9423815499, 1.41954200745, 0.3649054465, -9.81236727695, 0.0, 0.0, 0.0, 1.27118700625, 0.7956135145, -9.9936235889
15.0814828873, 1.50584499509, 0.50279713641, -13.9532839634, 1.4536397295, 0.406779842, -9.7782695549, 0.0, 0.0, 0.0, 1.3100703735, 0.77467631675, -9.99182897195
15.1317141056, 1.54000577243, 0.488000820142, -13.9489821479, 1.4691930764, 0.37148570865, -9.81057266, 0.0, 0.0, 0.0, 1.3208380752, 0.70049881615, -9.9505527821
15.1821649075, 1.56333270451, 0.490244315396, -13.9495573858, 1.45543434645, 0.34755748265, -9.77288570405, 0.0, 0.0, 0.0, 1.31784704695, 0.71605216305, -9.9840522985
15.232405901, 1.57688696213, 0.487191458575, -13.940666957, 1.48175539505, 0.37268211995, -9.7734839097, 0.0, 0.0, 0.0, 1.3196416639, 0.76989067155, -9.94636534255
15.2826299667, 1.59193744047, 0.478687839766, -13.9430682084, 1.47098769335, 0.3445664544, -9.7842516114, 0.0, 0.0, 0.0, 1.339980656, 0.71126651785, -9.9696953629
15.3328769207, 1.59903808559, 0.463877680913, -13.9457530296, 1.49132668545, 0.3768695595, -9.7770731436, 0.0, 0.0, 0.0, 1.3375878334, 0.62153567035, -9.97148997985
15.3830659389, 1.60345480062, 0.466082586828, -13.9448369802, 1.49013027415, 0.32602207925, -9.7938229018, 0.0, 0.0, 0.0, 1.34536450685, 0.74835526815, -9.95115098775
15.4332590103, 1.59704649467, 0.465488846621, -13.9493877781, 1.46739845945, 0.3529413335, -9.79920675265, 0.0, 0.0, 0.0, 1.34656091815, 0.77587272805, -9.954142016
15.4835290909, 1.58717031066, 0.479490335069, -13.9463149136, 1.44705946735, 0.3852444386, -9.8129654826, 0.0, 0.0, 0.0, 1.3088739622, 0.7609175868, -9.9361958465
15.5337560177, 1.58304598813, 0.490348249416, -13.960275771, 1.47696974985, 0.3744767369, -9.8033941922, 0.0, 0.0, 0.0, 1.2885349701, 0.80099736535, -10.0091769358
15.5839929581, 1.55403959186, 0.46562360752, -13.9580781441, 1.4344971487, 0.3613162126, -9.7914300792, 0.0, 0.0, 0.0, 1.256231865, 0.70169522745, -9.9732845968
15.6343150139, 1.54466581749, 0.469567578312, -13.9607692902, 1.45184511255, 0.34755748265, -9.81954574475, 0.0, 0.0, 0.0, 1.2825529136, 0.7573283529, -9.9804630646
15.6845829487, 1.51582444868, 0.464942308141, -13.9660896228, 1.3962119871, 0.38823546685, -9.80279598655, 0.0, 0.0, 0.0, 1.25922289325, 0.7704888772, -10.000203851
15.7347650528, 1.47955961603, 0.456361890973, -13.9712345663, 1.3770694063, 0.34875389395, -9.7962157244, 0.0, 0.0, 0.0, 1.2047861791, 0.71964139695, -9.990034355
15.7849750519, 1.44893679634, 0.466349458131, -13.9754395265, 1.35134656335, 0.37387853125, -9.8201439504, 0.0, 0.0, 0.0, 1.1676974288, 0.72681986475, -9.98465050415
15.8351559639, 1.41465691435, 0.470350741116, -13.9771204784, 1.32622192605, 0.3517449222, -9.8069834261, 0.0, 0.0, 0.0, 1.1892328322, 0.7920242806, -10.001998468
15.8853359222, 1.37259271949, 0.468555902993, -13.9706493763, 1.28554394185, 0.37507494255, -9.8333044747, 0.0, 0.0, 0.0, 1.15034946495, 0.7322037156, -10.0037930849
15.9355249405, 1.35116419384, 0.490537610457, -13.980053427, 1.2981062605, 0.4319044793, -9.80877804305, 0.0, 0.0, 0.0, 1.12283200505, 0.74715885685, -10.0085787301
15.9858129025, 1.30404384512, 0.478363318846, -13.988025325, 1.232303639, 0.3649054465, -9.8141618939, 0.0, 0.0, 0.0, 1.07617196435, 0.7645068207, -9.9828558872
16.0360190868, 1.26002290286, 0.48166419869, -14.0036491146, 1.2179467034, 0.36191441825, -9.8297152408, 0.0, 0.0, 0.0, 1.05942220615, 0.79022966365, -10.048060303
16.0862989426, 1.23121519488, 0.469988399696, -14.0093205814, 1.172483074, 0.37268211995, -9.8440721764, 0.0, 0.0, 0.0, 1.0480562988, 0.68494546925, -9.99661461715
16.1365659237, 1.19850575994, 0.472447934331, -14.0150250442, 1.1581261384, 0.34277183745, -9.83988473685, 0.0, 0.0, 0.0, 1.0241280728, 0.76630143765, -10.000203851
16.186923027, 1.16592111967, 0.463406748045, -14.0146825279, 1.1497512593, 0.3122633493, -9.8416793538, 0.0, 0.0, 0.0, 0.9822536773, 0.7920242806, -10.0426764522
16.2371070385, 1.13786976623, 0.444216915932, -14.0130790553, 1.1401799689, 0.2895315346, -9.846464999, 0.0, 0.0, 0.0, 0.98165547165, 0.7070790783, -10.0133643753
16.2873399258, 1.11991408238, 0.432724672727, -14.0148592802, 1.11445712595, 0.30687949845, -9.8380901199, 0.0, 0.0, 0.0, 0.97686982645, 0.73639115515, -10.0432746578
16.337528944, 1.09308829768, 0.425000633425, -14.0224450446, 1.09651095645, 0.3002992363, -9.8548398781, 0.0, 0.0, 0.0, 0.96849494735, 0.75912296985, -10.0456674804
16.3877160549, 1.07674831676, 0.408104024867, -14.0216451873, 1.10727865815, 0.3637090352, -9.84825961595, 0.0, 0.0, 0.0, 0.9427721044, 0.6975077879, -10.0235338714
16.4379460812, 1.05438889315, 0.436053153369, -14.0242240249, 1.08933248865, 0.28893332895, -9.81834933345, 0.0, 0.0, 0.0, 0.9415756931, 0.71724857435, -10.0325069561
16.4881689548, 1.03783314357, 0.431314339549, -14.0372775285, 1.05583297225, 0.30448667585, -9.8715896363, 0.0, 0.0, 0.0, 0.91585285015, 0.7250252478, -10.0438728635
16.5384290218, 1.02225799509, 0.428752105243, -14.0452269784, 1.0636096457, 0.33559336965, -9.85184884985, 0.0, 0.0, 0.0, 0.92063849535, 0.7322037156, -10.0343015731
16.5887041092, 1.02146254588, 0.420765226304, -14.047757088, 1.06660067395, 0.30209385325, -9.8572327007, 0.0, 0.0, 0.0, 0.9236295236, 0.70169522745, -10.0402836296
16.6389698982, 1.02783340077, 0.429716120106, -14.0343644984, 1.08095760955, 0.32721849055, -9.8632147572, 0.0, 0.0, 0.0, 0.95653083435, 0.71246292915, -10.0103733471
16.6891639233, 1.03072202509, 0.435497843877, -14.0420155475, 1.0923235169, 0.35353953915, -9.82552780125, 0.0, 0.0, 0.0, 0.92662055185, 0.7310073043, -10.0743813517
16.7393810749, 1.00017576474, 0.437005250841, -14.0339337136, 0.9284151688, 0.35353953915, -9.8644111685, 0.0, 0.0, 0.0, 0.93260260835, 0.68135623535, -10.0181500206
16.789757967, 1.0168942065, 0.437070965387, -14.0312806093, 1.0803594039, 0.30329026455, -9.8512506442, 0.0, 0.0, 0.0, 0.92781696315, 0.71784678, -10.0091769358
16.8401310444, 1.0280540402, 0.427766703169, -14.0255286336, 1.10368942425, 0.3158525832, -9.8512506442, 0.0, 0.0, 0.0, 0.94097748745, 0.71724857435, -10.0253284884
16.890914917, 1.0397006627, 0.418845517212, -14.0240360596, 1.11326071465, 0.3445664544, -9.84706320465, 0.0, 0.0, 0.0, 0.94456672135, 0.69212393705, -10.0235338714
16.9411571026, 1.05845701008, 0.418470782509, -14.0232179008, 1.12522482765, 0.37627135385, -9.8117690713, 0.0, 0.0, 0.0, 0.9547362174, 0.75074809075, -10.0540423596
16.9913420677, 1.07314317773, 0.429906822275, -14.0223338382, 1.12881406155, 0.34995030525, -9.82074215605, 0.0, 0.0, 0.0, 0.9846464999, 0.76271220375, -10.0301141335
17.0415968895, 1.34445535239, 0.372777962001, -13.9265846146, 1.64087809795, -0.2141576227, -9.3140619705, 0.0, 0.0, 0.0, 2.0853448959, 0.89671026935, -9.95713304425
17.0918190479, 1.15107985935, 0.537974536101, -14.2980559601, 0.4283152454, 0.62751772685, -10.4231352456, 0.0, 0.0, 0.0, 1.18983103785, 0.44566320925, -10.3453685111
17.1420090199, 1.00409894362, 0.163801313921, -14.1121896822, 1.0851450491, -0.6424728681, -9.99541820585, 0.0, 0.0, 0.0, 0.5898307709, 0.3062812928, -10.3956177857
17.1922669411, 0.997145463318, 0.11923240899, -13.9969764337, 1.09531454515, 0.1507478238, -9.5007021333, 0.0, 0.0, 0.0, 0.9547362174, 0.37866417645, -9.67836921135
17.2424910069, 0.939212827223, -0.0841468797345, -14.1304301274, 1.1258230333, -0.47916272565, -10.0181500206, 0.0, 0.0, 0.0, 0.8638089586, -0.0729810893, -10.4404832094
17.292771101, 0.811877566789, -0.355183613045, -13.7220847251, 1.3387842447, 0.08793623055, -9.64965534015, 0.0, 0.0, 0.0, 0.5036891573, -0.84646099475, -9.38524844285
17.3430860043, 1.02521773426, -0.419648915594, -13.9839073938, 1.2777672684, -0.7585247642, -9.7974121357, 0.0, 0.0, 0.0, 0.89312103545, 0.071784678, -10.0372926013
17.3932840824, 1.6527339956, -0.622289741975, -14.2999988005, 2.92582383415, 0.57248280705, -11.3611217048, 0.0, 0.0, 0.0, 2.0135602179, -1.64566374315, -8.9958165647
17.4436509609, 1.722274933, -0.618416792637, -14.0371786771, 1.70548430815, -1.07258273045, -9.61974505765, 0.0, 0.0, 0.0, 1.45543434645, 0.7369893608, -9.9038927414
17.4938499928, 1.64292858251, -0.786321487426, -14.0601726967, 1.4285150922, -0.24586252215, -9.23330420775, 0.0, 0.0, 0.0, 1.39441737015, -0.37986058775, -9.74417183285
17.544123888, 1.7143332468, -0.693321683136, -14.5567097735, 1.40997071705, -0.14656038425, -10.2843515348, 0.0, 0.0, 0.0, 1.38245325715, -0.35712877305, -11.1451694651
17.5943338871, 1.66321647535, -0.596795935981, -14.2906247017, 0.92662055185, -1.36091785375, -9.5461657627, 0.0, 0.0, 0.0, 1.47098769335, 0.17168502155, -10.1473624409
17.6445300579, 1.4895662698, -0.585378855045, -14.4175403175, 1.39082813625, -0.6628118602, -10.2789676839, 0.0, 0.0, 0.0, 0.87158563205, 1.3782658176, -11.0626170854
17.6947369576, 1.36795647714, -0.816282572184, -14.0038801998, 1.27836547405, -1.184447187, -10.2628161314, 0.0, 0.0, 0.0, 1.6462619488, -0.09152546445, -10.0953185494
17.7449119091, 1.4349027123, -0.875305264609, -14.4672345851, 1.53080825835, -1.37766761195, -10.8119689181, 0.0, 0.0, 0.0, 1.41475636225, 0.19561324755, -10.9998054922
17.7951591015, 1.36636719775, -1.04841971853, -14.4963184449, 1.0875378717, -0.62512490425, -11.0644117024, 0.0, 0.0, 0.0, 1.25443724805, -0.76630143765, -10.5182499439
17.8454039097, 1.49774981885, -1.3282905459, -14.2909310123, 1.44586305605, -1.1964113, -9.47378287905, 0.0, 0.0, 0.0, 1.72462688895, -0.5168496816, -10.4889378671
17.8956730366, 1.53299801728, -1.47188609739, -14.1613379466, 1.8687944506, -0.705882667, -9.2805624541, 0.0, 0.0, 0.0, 1.10010019035, -0.74476603425, -9.7184489899
17.9459760189, 1.63571588726, -1.41575607199, -14.4402504619, 1.2215359373, -1.26281212715, -10.3974124026, 0.0, 0.0, 0.0, 2.045863323, 0.6664010941, -11.4556381975
17.9962120056, 1.78681451225, -1.67268807048, -14.1128516608, 1.56191495215, -1.6342978358, -9.52762138755, 0.0, 0.0, 0.0, 1.5637095691, -0.91346002755, -9.93679405215
18.0465168953, 1.78195941805, -1.83347386819, -14.1512483108, 1.6283157793, -1.41714918485, -9.64845892885, 0.0, 0.0, 0.0, 1.24486595765, -0.48634119345, -10.5517494603
18.0967149734, 1.96155292603, -1.60708856834, -14.2035974482, 2.20678064285, -0.9236295236, -9.415756931, 0.0, 0.0, 0.0, 1.3495519464, -0.7202396026, -10.815558152
18.1469490528, 1.73925450317, -1.49710060938, -14.0615235852, 1.5110674719, 0.74117680035, -10.1162557471, 0.0, 0.0, 0.0, 0.85363946255, -2.4394826407, -9.55154961355
18.1973700523, 1.87439209946, -1.50641858146, -14.1179791438, 1.42672047525, -0.56530433925, -9.0628155975, 0.0, 0.0, 0.0, 1.9034903783, -0.90867438235, -10.4117693382
18.2476069927, 2.29112914895, -1.54393729859, -14.2488914781, 1.8675980393, -1.30947216785, -9.79920675265, 0.0, 0.0, 0.0, 2.43768802375, -0.70408805005, -11.1086789205
18.2978599072, 2.49240265162, -1.30789406469, -14.1773722248, 2.87796738215, -0.514456859, -10.3621182693, 0.0, 0.0, 0.0, 1.7742779579, -0.0382851616, -9.88654477755
18.3480119705, 2.65175368416, -1.0998466339, -14.2650574523, 2.53818657295, -0.2955135911, -9.97029356855, 0.0, 0.0, 0.0, 2.4598216328, -0.61076796865, -10.8670038379
18.3982040882, 2.7487423471, -0.859086967628, -13.8463803835, 2.47358036275, 0.09152546445, -9.72622566335, 0.0, 0.0, 0.0, 2.1822542112, 0.13339985995, -9.35533816035
18.4483718872, 2.88924228226, -0.297540727054, -13.9904218944, 2.7337998205, 0.131605243, -10.3058869382, 0.0, 0.0, 0.0, 2.29172584515, 0.7130611348, -9.29432118405
18.498871088, 2.80746972619, -0.256699998015, -14.0140796935, 1.9250257817, -0.5060819799, -9.71545796165, 0.0, 0.0, 0.0, 2.2660030022, 0.5132604477, -10.1228360093
18.5490438938, 3.02617267604, -0.280397745515, -14.0348144335, 2.49870500005, -0.2428714939, -9.40798025755, 0.0, 0.0, 0.0, 2.4849462701, 0.47198425785, -9.63410199325
18.5993089676, 2.86589303223, 0.491834209812, -13.7255759623, 1.36809632155, 1.55114725045, -8.85284541435, 0.0, 0.0, 0.0, 3.0364918794, 3.02751879465, -10.8705930718
18.6495890617, 2.89174753489, 0.765505975147, -13.6716934649, 2.4346969955, 1.01036934285, -9.91645506005, 0.0, 0.0, 0.0, 2.4753749797, 1.17667051355, -9.954142016
18.6997840405, 2.99213994382, 0.458211684771, -13.7304152619, 2.60159637185, 0.1698904046, -10.0223374601, 0.0, 0.0, 0.0, 1.98664096365, 0.8123632727, -10.0384890127
18.7499709129, 3.09305485862, 0.857691937811, -13.7989671478, 2.65064923515, 2.29172584515, -9.320044027, 0.0, 0.0, 0.0, 2.1008982428, 0.7549355303, -9.9254281448
18.8001539707, 3.10476170083, 0.674052408633, -13.6834050468, 2.22233398975, 0.4235296002, -9.25962525635, 0.0, 0.0, 0.0, 2.18524523945, -0.0705882667, -9.7663054419
18.8503329754, 3.26552737827, 0.65894105573, -13.9365620633, 2.763710103, 1.49371950805, -10.2287184093, 0.0, 0.0, 0.0, 3.12083887605, 0.24945175605, -10.9316100481
18.9006359577, 3.18522696551, 0.788359561549, -13.6400143599, 2.0889341298, -0.96849494735, -9.47617570165, 0.0, 0.0, 0.0, 2.63270306565, 2.0350956213, -9.4241318101
18.9510729313, 2.98817456066, 0.810513405174, -13.7915411654, 2.4562323989, 0.56171510535, -10.2065848003, 0.0, 0.0, 0.0, 2.368894374, 1.3208380752, -9.9050891527
19.0012209415, 2.84682987804, 1.35981536279, -13.6585641272, 2.177468566, 1.17906333615, -9.65683380795, 0.0, 0.0, 0.0, 2.4598216328, 3.19023073145, -9.82911703515
19.051402092, 2.96968883696, 1.4575518047, -13.7671854555, 2.26420838525, 0.67178494495, -9.8045906035, 0.0, 0.0, 0.0, 2.6177479244, 1.6498511827, -10.2233345585
19.1015489101, 2.96620347705, 1.41548158675, -13.7994214961, 2.35513564405, 0.8315058535, -9.27996424845, 0.0, 0.0, 0.0, 1.84785725285, 1.3483555351, -9.72144001815
19.1518390179, 2.34391107152, 1.09011109704, -13.693048015, 2.63629229955, -0.78783684105, -9.05623533535, 0.0, 0.0, 0.0, 0.66939212235, 0.86440716425, -10.1868440138
19.2020831108, 2.41193966974, 1.11944078777, -13.5637371298, 2.2803599378, 1.07856478695, -10.313065406, 0.0, 0.0, 0.0, 1.89212447095, 0.8638089586, -9.82074215605
19.2523009777, 2.26535352204, 1.13053783031, -13.6503228735, 2.03808664955, 0.24466611085, -9.66161945315, 0.0, 0.0, 0.0, 1.8436698133, 1.71385918725, -10.3298151642
19.3026070595, 2.27952002341, 1.83909491134, -13.9589367083, 1.83230390595, 4.3824545919, -11.0063857543, 0.0, 0.0, 0.0, 1.0336993632, 0.83808611565, -8.50588613735
19.3529219627, 2.3564419194, 1.85149468971, -13.9022829926, 2.23310169145, 2.11106773885, -9.82074215605, 0.0, 0.0, 0.0, 2.0542382021, 1.3112667848, -10.4554383507
19.4035000801, 2.51966809649, 2.09603025647, -13.877513927, 2.42572391075, 2.01655124615, -9.58026348475, 0.0, 0.0, 0.0, 1.5254244075, 1.05463656095, -9.39362332195
19.4537470341, 2.36162237678, 2.24483309331, -13.8520317813, 1.88494600315, 1.03908321405, -9.57547783955, 0.0, 0.0, 0.0, 2.16251342475, 2.69970209845, -9.8536434668
19.5040109158, 2.42172734131, 2.53375498054, -14.021073948, 2.06919334335, 2.7134608284, -10.851450491, 0.0, 0.0, 0.0, 2.12303185185, 2.5686950611, -9.71306513905
19.5543329716, 2.27569800044, 2.2223698628, -13.8177686643, 1.87657112405, 1.4069796888, -10.2197453246, 0.0, 0.0, 0.0, 1.61216422675, 1.69830584035, -8.92343368105
19.6046800613, 2.01157556276, 1.73388869784, -13.7143495406, 1.3962119871, 1.08933248865, -9.84467038205, 0.0, 0.0, 0.0, 1.5613167465, 1.9477575964, -10.0953185494
19.6549220085, 2.18336373962, 1.59585364114, -13.8552015753, 1.8675980393, 0.9068797654, -9.57069219435, 0.0, 0.0, 0.0, 2.1332013479, 1.4428720278, -9.8440721764
19.7051579952, 1.96953270599, 1.40163824032, -13.8665904975, 1.5649059804, 1.27357982885, -9.39123049935, 0.0, 0.0, 0.0, 1.2251251712, 0.37746776515, -9.81476009955
19.7554280758, 2.0707854944, 1.24032792969, -13.7739473093, 2.05244358515, 0.46121655615, -9.7974121357, 0.0, 0.0, 0.0, 1.33938245035, 0.8961120637, -9.5784688678
19.8056559563, 2.06799768027, 1.37158381634, -13.8500060238, 1.7455640867, -0.2117648001, -9.4504528587, 0.0, 0.0, 0.0, 2.29172584515, 3.0364918794, -10.7401842401
19.8561968803, 1.89431728945, 1.29355643081, -13.7488199749, 1.7982061839, 1.4584253747, -9.80518880915, 0.0, 0.0, 0.0, 0.93619184225, 1.2490533972, -9.1992064857
19.9066100121, 1.71123167462, 1.09242025724, -13.9550793438, 0.9487541609, 0.9343972253, -8.781658942, 0.0, 0.0, 0.0, 1.9166509026, 0.73160550995, -10.3902339349
19.9569160938, 1.98289841709, 1.49664173516, -14.0807495112, 1.55593289565, 2.29651149035, -9.6275217311, 0.0, 0.0, 0.0, 2.42572391075, 1.9106688461, -11.1218394448
20.0072510242, 1.99614520699, 1.43492441532, -14.001705034, 1.80239362345, 1.80119721215, -10.6408821022, 0.0, 0.0, 0.0, 0.9439685157, 0.634097989, -8.697910151
20.057461977, 1.99718569142, 1.58091215217, -13.9537632134, 1.770688724, 1.5888342064, -9.9003035075, 0.0, 0.0, 0.0, 1.85144648675, 0.97686982645, -10.1976117155
20.107724905, 1.76581428991, 1.27091758267, -14.0113215796, 1.74855511495, 0.59641103305, -9.43669412875, 0.0, 0.0, 0.0, 0.2763710103, 0.825523797, -11.282158559
20.1580328941, 1.67503015852, 1.17593202203, -14.0452685578, 2.0231315083, 0.33200413575, -10.4195460117, 0.0, 0.0, 0.0, 1.9405791286, 1.2981062605, -9.67358356615
20.2082810402, 1.8188527599, 0.995954479113, -14.1408062484, 1.67497582, 0.5670989562, -10.1282198601, 0.0, 0.0, 0.0, 1.3974083984, 0.323031051, -10.610373614
20.2584879398, 1.90851986734, 1.02835975893, -13.8525960662, 1.15752793275, 1.3866406967, -9.1369930981, 0.0, 0.0, 0.0, 1.8173487647, 0.9415756931, -9.90688376965
20.3087930679, 2.0007906311, 0.988924743327, -13.7348487849, 1.80239362345, 0.2787638329, -9.69870820345, 0.0, 0.0, 0.0, 1.854437515, 1.31784704695, -9.2386880586
20.3591599464, 2.1484059655, 1.00707691087, -13.7453128273, 1.70668071945, 0.08315058535, -9.19262622355, 0.0, 0.0, 0.0, 2.2325034858, 1.9549360642, -9.8895358058
20.4094369411, 2.24026217398, 0.995875732006, -14.0065698931, 2.1116659445, 1.0109675485, -10.8131653294, 0.0, 0.0, 0.0, 1.71744842115, 0.7908278693, -9.71067231645
20.4597558975, 2.3290358649, 0.649330556507, -13.9489995761, 2.4011974791, 0.10707881135, -9.9373922578, 0.0, 0.0, 0.0, 1.97706967325, 0.99601240725, -9.76451082495
20.5100460052, 2.11285683909, 0.729037575109, -14.05849767, 1.34297168425, 1.4727823103, -10.299306676, 0.0, 0.0, 0.0, 1.4979069476, 0.42891345105, -10.2430753449
20.5603239536, 1.9571265717, 0.861951222299, -14.0384052463, 1.3064811396, 0.9236295236, -9.79442110745, 0.0, 0.0, 0.0, 1.20059873955, 0.8458627891, -9.3056870914
20.6106050014, 1.90622564387, 0.820738567923, -13.9573514775, 1.69471660645, 1.4763715442, -10.0175518149, 0.0, 0.0, 0.0, 1.21734849775, -0.3038884702, -9.51087162935
20.6608500481, 1.92223726273, 0.57508928366, -14.1647738545, 3.8237305148, -1.62652116235, -11.0213408956, 0.0, 0.0, 0.0, 1.9465611851, 0.69810599355, -11.892328322
20.7110939026, 1.10449456964, 1.56190763263, -13.9714145807, 0.57128639575, 1.72223406635, -10.5020983914, 0.0, 0.0, 0.0, -0.31405796625, 2.21156628805, -9.20100110265
20.7614018917, 1.2162951442, 1.68328246358, -13.7732710977, 1.37886402325, 1.3292129543, -9.8356972973, 0.0, 0.0, 0.0, 1.15034946495, 1.806581063, -9.296115801
20.8117520809, 1.58894895774, 1.34486844943, -13.5253607801, 1.3232308978, -3.46420891915, -9.1788674936, 0.0, 0.0, 0.0, 1.35373938595, 1.7994025952, -9.68674409045
20.8620409966, 1.6300235395, 2.01046372443, -13.4003481485, 1.1796615418, 3.1441688964, -10.1665050217, 0.0, 0.0, 0.0, 1.339980656, 1.03549398015, -9.7675018532
20.9123239517, 1.97920367823, 1.29951772015, -14.1837729667, 2.79661141375, -1.3076775509, -11.1577317838, 0.0, 0.0, 0.0, 1.9633109433, 4.30289324045, -9.63769122715
20.9625680447, 1.8158023725, 1.46873852755, -14.4785608007, 1.71744842115, 0.9786644434, -8.985048863, 0.0, 0.0, 0.0, 1.0444670649, 1.5828521499, -11.6925276349
21.0127708912, 1.61598979093, 1.2389461944, -14.1679725478, 1.6462619488, 0.70767728395, -9.6921279413, 0.0, 0.0, 0.0, 1.13240329545, 1.38006043455, -9.86859860805
21.0630669594, 1.51372072641, 1.09878787425, -13.9042874261, 0.12502498085, 0.84047893825, -8.50110049215, 0.0, 0.0, 0.0, 1.93758810035, 1.59062882335, -10.0881400816
21.1133849621, 1.87132971699, 1.79611569229, -14.1015996541, 1.7778671918, 1.17308127965, -10.5200445609, 0.0, 0.0, 0.0, 1.29272240965, 2.3724836079, -9.51446086325
21.1636838913, 1.77304945368, 1.84515889952, -14.0236261845, 1.57507547645, 0.9870393225, -9.91286582615, 0.0, 0.0, 0.0, 1.1808579531, 1.82632184945, -10.0642118556
21.2140200138, 1.69745654546, 2.09245225754, -13.9630421886, 1.5864413838, 2.4394826407, -9.9206424996, 0.0, 0.0, 0.0, 1.50209438715, 2.2707886474, -10.2670035709
21.2643198967, 1.46220331017, 1.63729757507, -13.8628828945, 1.2825529136, 0.53419764545, -9.2901337445, 0.0, 0.0, 0.0, 1.0061819033, 2.28454737735, -10.3286187529
21.3146409988, 1.60420432224, 1.71265212125, -14.0743356796, 1.90049935005, 1.02592268975, -10.3202438738, 0.0, 0.0, 0.0, 1.5684952143, 2.3892333661, -10.0863454646
21.3648409843, 1.50051082614, 1.79844791578, -14.1232608274, 1.63250321885, 1.26281212715, -10.2089776229, 0.0, 0.0, 0.0, 1.10727865815, 1.73180535675, -10.9028961769
21.415117979, 1.42356996835, 2.10747539012, -13.8583025742, 1.3387842447, 1.1557333158, -9.4456672135, 0.0, 0.0, 0.0, 0.99960164115, 2.83370016405, -9.3032942688
21.4653890133, 1.32800848308, 1.99755370594, -14.0037912266, 0.7980063371, 1.32382910345, -9.18305493315, 0.0, 0.0, 0.0, 1.5266208188, 1.2765708571, -10.706086518
21.5157530308, 1.26372031251, 1.69836527766, -13.7723387222, 1.18145615875, 1.33938245035, -9.5437729401, 0.0, 0.0, 0.0, 1.6809578765, 1.8915262653, -10.4255280682
21.5659239292, 1.50068023489, 1.75194560422, -14.1771717011, 1.23529466725, 0.526420972, -10.6815600864, 0.0, 0.0, 0.0, 1.3567304142, 2.1822542112, -10.025926694
21.6161489487, 0.885934280657, 1.81546848768, -13.6697945756, 0.63589260595, 1.8532411037, -7.65763052565, 0.0, 0.0, 0.0, 0.8829515394, 1.3962119871, -10.5020983914
21.6663448811, 0.946975969156, 1.72176609295, -14.0650838515, 1.26520494975, 2.6572294973, -10.8897356526, 0.0, 0.0, 0.0, -0.15732808595, 0.4414757697, -10.313065406
21.7166190147, 0.908005797606, 1.96436025134, -14.0252555345, 0.61675002515, 1.2981062605, -9.7818587888, 0.0, 0.0, 0.0, 1.13838535195, 1.52123696795, -9.99541820585
21.7668120861, 0.937910559568, 2.34290191418, -13.7813494234, 1.1712866627, 0.8338986761, -10.347163128, 0.0, 0.0, 0.0, 0.5371886737, 2.09551439195, -8.8462651522
21.8170819283, 1.35721950385, 2.25267628416, -13.502949516, 1.78085822005, 1.27357982885, -8.4179499068, 0.0, 0.0, 0.0, 1.11206430335, 1.68275249345, -10.7850496638
21.8672199249, 1.7448888781, 1.55564019295, -13.8648471198, 1.43569356, -1.0013962581, -10.1288180658, 0.0, 0.0, 0.0, 2.0315063874, 0.85962151905, -9.7555377402
21.9173700809, 1.64471543822, 1.49862904075, -14.0340870599, 1.55533469, 1.6929219895, -10.396814197, 0.0, 0.0, 0.0, 1.3304093656, 0.8470592004, -10.6067843801
21.9675400257, 1.62854914437, 1.38350170369, -14.1569221939, 1.84905366415, 1.11565353725, -10.2083794172, 0.0, 0.0, 0.0, 1.47577333855, 0.80099736535, -10.0695957064
22.0178079605, 1.54149977934, 1.2718532944, -14.1946140854, 0.9702895643, 1.3292129543, -9.6885387074, 0.0, 0.0, 0.0, 1.44586305605, 0.06041877065, -10.5571333112
22.0680859089, 1.39683350238, 1.22007606654, -14.2944069994, 1.1018948073, 0.5802594805, -10.3411810716, 0.0, 0.0, 0.0, 1.1653046062, 1.1401799689, -10.6516498039
22.1183130741, 1.45860074865, 1.15086334725, -14.2639095236, 1.5457633996, 0.0334995164, -9.8476614103, 0.0, 0.0, 0.0, 1.12642123895, 0.91704926145, -9.8237331843
22.1685609818, 1.43648462085, 1.37171503484, -14.4841630886, 1.33938245035, 0.87756768855, -10.5236337948, 0.0, 0.0, 0.0, 1.2430713407, 1.37168555545, -10.6797654694
22.2187409401, 1.43380863993, 1.45858772972, -14.2602638466, 1.3363914221, 1.65284221095, -10.1677014331, 0.0, 0.0, 0.0, 1.6175480776, 2.39581362825, -10.0725867347
22.2690351009, 1.28415656462, 1.54694758968, -14.2336970195, 0.9296115801, 1.31665063565, -9.89013401145, 0.0, 0.0, 0.0, 0.94217389875, 1.55952212955, -10.1054880454
22.3193190098, 0.974738702871, 1.09943305596, -14.1761195658, 0.94695954395, -0.215354034, -9.69093153, 0.0, 0.0, 0.0, 0.29371897415, 0.4498506488, -10.1712906669
22.3695540428, 0.404229085809, 0.861389628166, -13.7635364023, 0.4821537539, 1.60977140415, -9.3762753581, 0.0, 0.0, 0.0, -1.4321043261, -0.873380249, -8.6572321668
22.4198870659, 0.568765818646, 1.07531138633, -13.9443917659, 0.45523449965, 1.22093773165, -9.58744195255, 0.0, 0.0, 0.0, 1.1820543644, 1.3148560187, -9.77408211535
22.4702179432, 0.937596698031, 1.23146863953, -14.4522890064, 0.66939212235, 0.7166503687, -11.0321085973, 0.0, 0.0, 0.0, 1.7479569093, 1.44466664475, -10.4901342784
22.5204720497, 0.999273215268, 1.27002806204, -14.3597643837, 0.93020978575, 1.36689991025, -9.5007021333, 0.0, 0.0, 0.0, 0.97926264905, 1.20897361865, -10.4099747213
22.5707530975, 0.967998909802, 1.10176761672, -14.0905416126, 1.06660067395, 1.0420742423, -9.61017376725, 0.0, 0.0, 0.0, 1.20897361865, 1.05702938355, -10.4518491168
22.6210179329, 0.762921774868, 0.965870046473, -14.0588384147, 1.42073841875, -0.813559684, -9.18544775575, 0.0, 0.0, 0.0, -1.0516455327, 2.5663022385, -10.52841944
22.6712489128, 0.385517201831, 1.06862703231, -13.8691729561, 0.0550349198, 0.5324030285, -8.60279545265, 0.0, 0.0, 0.0, 1.1054840412, 0.44566320925, -10.8879410356
22.7215270996, 0.247397400108, 1.51793279956, -13.8794516746, 0.29012974025, 1.09172531125, -8.94736190705, 0.0, 0.0, 0.0, 0.06759723845, 1.5242279962, -10.2185489133
22.771832943, 1.08921775129, 1.51211843769, -14.1601477646, 1.13599252935, -0.01375872995, -10.1479606466, 0.0, 0.0, 0.0, 4.0259240245, 3.1992038162, -10.1288180658
22.8222661018, 1.06524735404, 1.08338270512, -13.9853329957, 0.5599204884, -0.622133876, -9.79083187355, 0.0, 0.0, 0.0, 0.5826523031, 0.6305087551, -9.39601614455
22.8724930286, 0.997874620771, 1.37103520861, -13.5381036117, 2.2348963084, 2.1128623558, -9.8368937086, 0.0, 0.0, 0.0, 0.00658026215, 1.7359927963, -8.5866439001
22.9227809906, 1.07394862417, 1.3121807691, -13.4273302813, 1.46021999165, 1.46021999165, -9.6502535458, 0.0, 0.0, 0.0, 0.51385865335, 0.47856452, -8.40538758815
22.9730811119, 1.1093721404, 1.28079578593, -13.5076524058, 0.9188438784, 1.82392902685, -9.4217389875, 0.0, 0.0, 0.0, 1.1078768638, 1.17068845705, -9.9888379437
23.0233271122, 1.33396233958, 1.4637717551, -13.8119670771, 1.30349011135, 1.4871392459, -9.678967417, 0.0, 0.0, 0.0, 1.86460701105, 1.1198409768, -10.5134642987
23.0736420155, 1.39070415689, 1.75029901944, -14.2062370389, 1.5649059804, 1.9178473139, -9.98106127025, 0.0, 0.0, 0.0, 1.3627124707, 2.3413769141, -10.6588282717
23.1239840984, 1.34359387268, 1.53220978986, -14.0334690765, 1.1054840412, 0.8434699665, -9.41994437055, 0.0, 0.0, 0.0, 0.7609175868, 0.13698909385, -9.85663449505
23.17446208, 1.45672194883, 1.53433489367, -13.8353405023, 2.04406870605, 0.37746776515, -9.7459664498, 0.0, 0.0, 0.0, 1.0660024683, 2.63031024305, -9.34815969255
23.2248249054, 1.48486522711, 1.97538553361, -13.8141079776, 1.0600204118, 2.28694019995, -9.5090770124, 0.0, 0.0, 0.0, 1.1676974288, 1.53320108095, -9.30030324055
23.2757411003, 1.66615499116, 2.17862829658, -13.8434693472, 1.35015015205, 2.20917346545, -11.0321085973, 0.0, 0.0, 0.0, 1.5218351736, 1.76410846185, -9.94636534255
23.3264610767, 1.67039495642, 2.22805483961, -13.7571817519, 1.040877831, 2.39820645085, -9.45822953215, 0.0, 0.0, 0.0, 1.8951154992, 2.14337084395, -10.03609619
23.3767459393, 1.71097597738, 1.95914959462, -13.7823239244, 1.04386885925, 0.53659046805, -9.24407190945, 0.0, 0.0, 0.0, 1.8137595308, 1.57028983125, -10.504491214
23.427052021, 1.91835017978, 1.71393402208, -13.7551752014, 1.8927226766, 0.6185446421, -9.01316452855, 0.0, 0.0, 0.0, 1.41714918485, 1.2251251712, -9.66161945315
23.4773180485, 1.98584230701, 1.55206595154, -13.6797820726, 1.9561324755, 0.9056833541, -10.2472627845, 0.0, 0.0, 0.0, 1.66959196915, 1.9800607015, -9.0723868879
23.5275020599, 2.06494267216, 1.57723093585, -13.5822097474, 1.5840485612, 0.55214381495, -9.8249295956, 0.0, 0.0, 0.0, 1.87537471275, 1.85383930935, -9.28235707105
23.5777831078, 2.06088568695, 1.51624142819, -13.4138143592, 1.8520446924, 1.26281212715, -9.1130648721, 0.0, 0.0, 0.0, 1.68753813865, 1.16111716665, -9.4851487864
23.6280829906, 2.15356303552, 1.27955621417, -13.8076263414, 2.0973090089, -0.0143569356, -9.71665437295, 0.0, 0.0, 0.0, 2.3976082452, 3.20339125575, -10.8047904503
23.6784350872, 2.29167781831, 1.14822259517, -13.977785666, 1.96031991505, 0.88953180155, -9.57308501695, 0.0, 0.0, 0.0, 2.2037896146, -0.04127618985, -9.9577312499
23.7287919521, 2.35268195956, 1.16971823744, -13.6471317, 1.68514531605, 0.6544369811, -9.19741186875, 0.0, 0.0, 0.0, 1.77726898615, 0.8362914987, -9.5174518915
23.7791249752, 2.41671002923, 1.55241981508, -13.7733448929, 2.28933302255, 1.37288196675, -9.72742207465, 0.0, 0.0, 0.0, 1.7814564257, 1.48055898375, -9.92004429395
23.8293910027, 2.48464829521, 1.13556325102, -13.5242063609, 2.0997018315, 0.5922235935, -9.67358356615, 0.0, 0.0, 0.0, 2.2504496553, 1.51525491145, -10.1144611302
23.87966609, 2.60312035391, 1.10799239777, -13.6080109147, 2.04167588345, 0.47437708045, -9.2374916473, 0.0, 0.0, 0.0, 2.5890340532, 1.76769769575, -10.1264252432
23.9299519062, 2.55564801122, 1.10320863631, -13.6395077245, 2.25104786095, 0.8865407733, -9.51326445195, 0.0, 0.0, 0.0, 1.9920248145, 1.70787713075, -10.0031948793
23.9802379608, 2.58028338647, 1.05662408047, -13.7910157192, 2.3042881638, 0.9954142016, -10.4733845202, 0.0, 0.0, 0.0, 1.9884355806, 0.7130611348, -9.77049288145
24.0304830074, 2.6394778241, 1.11312161218, -13.733000342, 2.32881459545, 1.10010019035, -9.2757768089, 0.0, 0.0, 0.0, 1.92682039865, 0.68255264665, -9.62333429155
24.080739975, 2.52052712479, 0.742530721967, -13.7131915018, 1.78444745395, 0.57008998445, -9.5330052384, 0.0, 0.0, 0.0, 1.78085822005, 0.4378865358, -9.43789054005
24.1310400963, 2.04369596368, 1.22571573086, -13.9611228444, -0.1758724611, 0.23509482045, -9.8368937086, 0.0, 0.0, 0.0, 1.00438728635, 2.91027048725, -9.39242691065
24.1813080311, 2.33416222967, 1.10635643223, -14.1457111952, 1.5266208188, -0.17407784415, -9.774680321, 0.0, 0.0, 0.0, 0.813559684, 0.8889335959, -9.1692962032
24.2315189838, 2.23757550732, 1.37244381623, -14.2179881975, 1.7527425545, 1.51405850015, -10.3304133698, 0.0, 0.0, 0.0, 1.18025974745, 0.7848458128, -10.0576315934
24.2816948891, 2.10278370322, 1.45862781493, -14.2014141709, 1.9465611851, 1.08215402085, -9.5665047548, 0.0, 0.0, 0.0, 1.2406785181, 1.0504491214, -9.76810005885
24.3319010735, 2.0030542962, 0.378156897987, -13.4982854729, 0.64307107375, -2.476571391, -7.47577600805, 0.0, 0.0, 0.0, 0.8685946038, -1.3136596074, -9.5796652791
24.3821969032, 2.28526309167, 1.10326110273, -13.4957885975, 3.16390968285, 0.6472585133, -9.0281196698, 0.0, 0.0, 0.0, 1.2370892842, 1.67318120305, -10.3944213744
24.4324429035, 2.33227149795, 1.63912895548, -13.6723651215, 1.7850456596, 0.8398807326, -9.53121062145, 0.0, 0.0, 0.0, 1.9441683625, 1.56789700865, -9.93200840695
24.4827508926, 2.24958014139, 1.31277888496, -13.7515548468, 2.11704979535, 0.5754738353, -9.6885387074, 0.0, 0.0, 0.0, 1.92083834215, 0.73758756645, -10.0516495369
24.5331161022, 2.30560796638, 1.35401374943, -13.7914175186, 2.344966148, 1.3950155758, -10.1042916341, 0.0, 0.0, 0.0, 2.0279171535, 1.28075829665, -10.5445709925
24.5833909512, 2.2624438132, 1.11710589635, -13.5889982076, 1.83110749465, 0.5407779076, -9.16151952975, 0.0, 0.0, 0.0, 1.76889410705, 1.6115660211, -9.3128655592
24.6335980892, 1.63999890632, 0.525091330374, -13.4682981113, 1.5290136414, 0.17288143285, -9.58504912995, 0.0, 0.0, 0.0, 1.32263269215, 1.0660024683, -10.0103733471
24.6838819981, 1.89647870646, 0.976725543122, -13.6722501352, 2.14815648915, 1.98185531845, -10.7072829293, 0.0, 0.0, 0.0, 1.63848527535, 0.34875389395, -10.2795658896
24.7342150211, 1.89038135993, 1.1503799042, -13.778304905, 1.6450655375, 1.1090732751, -9.2087777761, 0.0, 0.0, 0.0, 1.30947216785, 1.07138631915, -9.7160561673
24.784414053, 1.96289861215, 1.40786693212, -13.7998975351, 1.3232308978, 0.89671026935, -8.72841863915, 0.0, 0.0, 0.0, 1.8819549749, 2.5770699402, -10.3561362128
24.8346130848, 2.01411914052, 1.31140628194, -13.9135084703, 1.72343047765, 1.651047594, -9.9649097177, 0.0, 0.0, 0.0, 1.66839555785, 1.3591232368, -10.2783694783
24.8848040104, 1.65543632157, 1.61492031874, -13.8782228487, 1.18983103785, 0.88713897895, -8.51186819385, 0.0, 0.0, 0.0, 1.43509535435, 2.8031916759, -11.3413809183
24.9351050854, 1.84704615541, 1.52227907126, -13.9078688484, 2.19481652985, 0.6065805291, -9.750752095, 0.0, 0.0, 0.0, 1.1736794853, 1.11445712595, -9.1992064857
24.9854030609, 1.70852592507, 1.66308209532, -13.920941281, 1.2669995667, 0.93140619705, -9.38285562025, 0.0, 0.0, 0.0, 1.64207450925, 1.67677043695, -11.0392870651
25.035695076, 1.54110721264, 1.5541418794, -13.9007745061, 1.0552347666, 1.11804635985, -9.86261655155, 0.0, 0.0, 0.0, 1.39681019275, 1.0779665813, -10.2945210308
25.0859849453, 1.56293069397, 1.17556809466, -13.994990484, 1.36809632155, -0.01495514125, -10.1365947392, 0.0, 0.0, 0.0, 1.50089797585, 1.08095760955, -10.815558152
25.1362609863, 1.05904149359, 1.3354905838, -13.8477770776, 0.81176506705, 2.225325018, -10.3154582286, 0.0, 0.0, 0.0, 0.59820565, 1.38125684585, -9.1393859207
25.1864619255, 1.2536983953, 1.71744121674, -13.9202698548, 0.9080761767, 2.6751756668, -9.27876783715, 0.0, 0.0, 0.0, 1.40398866055, 1.18145615875, -10.2000045381
25.2367761135, 1.15404264138, 1.53863471977, -13.7364607977, 1.12761765025, 0.945164927, -9.02752146415, 0.0, 0.0, 0.0, 0.6855436749, 0.7334001269, -10.3411810716
25.2870481014, 1.10868039851, 1.2748554435, -13.6678700304, 1.71984124375, 1.1138589203, -10.9363956933, 0.0, 0.0, 0.0, 0.7381857721, 1.62652116235, -9.27039295805
25.3378200531, 1.08540688165, 1.57713669824, -13.8099555056, 0.9320044027, 1.3351950108, -10.0450692748, 0.0, 0.0, 0.0, 0.86560357555, 1.90528499525, -9.2506521716
25.3880751133, 0.500754466472, 1.59887127949, -13.6486731955, 0.2572284295, 1.52841543575, -9.1908316066, 0.0, 0.0, 0.0, 0.7154539574, 1.05583297225, -9.23689344165
25.4382479191, 0.699988282743, 1.5847455346, -13.7185152933, 1.7766707805, 1.24606236895, -10.9046907938, 0.0, 0.0, 0.0, 0.5850451257, 1.0492527101, -8.9718883387
25.4884190559, 0.591602229703, 1.90074206314, -13.7455840144, 0.42173498325, 2.07278257725, -9.8967142736, 0.0, 0.0, 0.0, 1.02711910105, 2.6105694566, -10.2047901833
25.5387001038, 0.23217400252, 1.7886770763, -13.6475756946, -0.0981057266, 0.454636294, -8.9814596291, 0.0, 0.0, 0.0, -0.25782663515, 1.42073841875, -9.51446086325
25.588958025, 0.199350751839, 1.86290856392, -13.5634521534, 0.44087756405, 1.53679031485, -9.9409814917, 0.0, 0.0, 0.0, 0.0023928226, 2.3030917525, -9.3774717694
25.6392059326, 0.092503871394, 2.03952437016, -13.6275303279, 0.9236295236, 0.80458659925, -8.94496908445, 0.0, 0.0, 0.0, 0.3565305674, 2.85164633355, -9.8368937086
25.6896009445, -0.086901229041, 2.24842822015, -13.6758901013, 0.23868405435, 1.8340985229, -10.1210413923, 0.0, 0.0, 0.0, -0.3086741154, 2.31206483725, -9.0580299523
25.73990798, -0.0245483234666, 2.07791706527, -13.7466545949, 0.79501530885, 1.2394821068, -9.8141618939, 0.0, 0.0, 0.0, 0.17168502155, 1.30349011135, -9.82193856735
25.7902719975, -0.270780906991, 2.04028777754, -13.8721905964, -0.14177473905, 2.14576366655, -9.1381895094, 0.0, 0.0, 0.0, -0.3912264951, 1.47816616115, -9.990034355
25.8406019211, -0.212261062344, 1.86141008684, -13.7160719904, 0.43728833015, 1.53798672615, -9.80040316395, 0.0, 0.0, 0.0, -0.19322042495, 1.49970156455, -8.66261601765
25.8908379078, -0.254096492657, 2.11658719415, -13.9343032755, 0.15493526335, 1.93280245515, -10.0552387708, 0.0, 0.0, 0.0, -0.6843472636, 1.7276179172, -10.1186485698
25.9410400391, -0.492229356946, 2.20176958682, -13.6668016182, 0.04965106895, 1.9010975557, -9.0484586619, 0.0, 0.0, 0.0, -0.5563312545, 2.40538491865, -9.403792818
25.9913270473, -0.644347207204, 2.41244427984, -13.6295164023, -0.370887503, 1.9956140484, -9.5988078599, 0.0, 0.0, 0.0, -0.0406779842, 2.04646152865, -9.46181876605
26.0416181087, -0.760423461561, 1.88595708638, -13.6561138351, -0.0562313311, 0.7310073043, -9.9589276612, 0.0, 0.0, 0.0, -0.45643091095, 1.75453717145, -10.0755777629
26.0918700695, -0.642596449218, 2.15817019499, -13.8600957032, -0.22432711875, 1.32622192605, -9.27278578065, 0.0, 0.0, 0.0, 0.15972090855, 2.6859433685, -10.1868440138
26.1421689987, -0.625154100904, 2.25118446542, -13.6524355909, -0.1854437515, 2.1870398564, -8.58604569445, 0.0, 0.0, 0.0, -0.79980095405, 1.5457633996, -9.3308117287
26.1924901009, -0.607536476742, 2.33513311127, -13.8207953734, 0.01016949605, 2.0171494518, -10.2197453246, 0.0, 0.0, 0.0, -0.19441683625, 2.56091838765, -9.463613383
26.2426741123, -0.608510070216, 2.2127075031, -13.6564574267, -0.12981062605, 0.76749784895, -9.34696328125, 0.0, 0.0, 0.0, -0.2596212521, 1.67557402565, -8.997012976
26.2928528786, -0.332080644597, 2.22150450308, -13.9577696534, 0.0538385085, 1.54755801655, -10.0247302827, 0.0, 0.0, 0.0, 0.03649054465, 1.91485628565, -9.7016992317
26.3434860706, -0.319262869454, 2.25246640122, -13.8926484694, 0.3577269787, 1.746760498, -9.54078191185, 0.0, 0.0, 0.0, 0.02572284295, 1.9130616687, -9.79681393005
26.3937211037, -0.523487771416, 2.29568229596, -14.0735527037, -0.39780675725, 1.9944176371, -10.7258273045, 0.0, 0.0, 0.0, -0.14416756165, 0.9846464999, -10.1904332477
26.444024086, -0.238878612008, 2.2873049147, -14.4233462585, 0.3768695595, 1.55354007305, -9.9206424996, 0.0, 0.0, 0.0, 0.41336010415, 1.6857435217, -10.7940227486
26.4943680763, -0.106690647764, 1.81350976298, -14.1389481791, 0.00059820565, 0.93738825355, -9.4121676971, 0.0, 0.0, 0.0, 0.56051869405, 0.9655039191, -10.3022977043
26.5446920395, 0.192143173314, 2.02592465167, -14.2865415881, 0.3888336725, 1.3818550515, -9.9840522985, 0.0, 0.0, 0.0, 0.80697942185, 2.7948167968, -10.4255280682
26.5950450897, 0.227650950224, 2.10162047629, -14.0280023084, 0.65742800935, 1.0552347666, -10.0588280047, 0.0, 0.0, 0.0, 0.9224331123, 2.54177580685, -9.46660441125
26.6453840733, 0.244104169893, 1.88608078907, -13.8798857772, 0.51026941945, 0.87397845465, -9.7088776995, 0.0, 0.0, 0.0, 0.28773691765, 1.08454684345, -10.1898350421
26.6956260204, 0.498878494889, 1.7304815838, -14.2224151052, 0.945164927, 1.5960126742, -10.3567344185, 0.0, 0.0, 0.0, 0.9678967417, 1.78205463135, -10.731809361
26.7459020615, 0.617021835216, 1.56362128777, -14.1761534343, 0.7621139981, 0.44087756405, -9.9409814917, 0.0, 0.0, 0.0, 0.6783652071, 1.3244273091, -10.0408818352
26.796216011, 0.85467718201, 1.65230921379, -14.2284648353, 1.42791688655, 1.16709922315, -10.251450224, 0.0, 0.0, 0.0, 0.69810599355, 1.46859487075, -10.0612208274
26.8464109898, 0.895497775576, 1.67503226864, -13.9018439314, 1.11565353725, 1.4943177137, -9.96790074595, 0.0, 0.0, 0.0, 0.4043870194, 1.2275179938, -9.3990071728
26.8966150284, 0.970551058603, 1.71188487119, -14.079404444, 1.1940184774, 0.95533442305, -10.1892368364, 0.0, 0.0, 0.0, 0.88833539025, 1.89212447095, -9.7782695549
26.9468889236, 0.945075971421, 1.20852918167, -14.0440763204, 1.1377871463, 0.15852449725, -10.1784691347, 0.0, 0.0, 0.0, 0.61675002515, 0.39302111205, -9.6969135865
26.9971718788, 1.04539357607, 0.97202462018, -13.8988514645, 1.19820591695, -0.01495514125, -8.55015335545, 0.0, 0.0, 0.0, 0.87996051115, 0.5407779076, -10.6642121225
27.0474069118, 1.18960983016, 1.13044433486, -14.1333900358, 1.2741780345, 0.77347990545, -10.1383893562, 0.0, 0.0, 0.0, 1.0743773474, 1.28674035315, -10.1228360093
27.0977621078, 1.46693936276, 1.10410204725, -14.0176346142, 1.5170495284, -0.04366901245, -9.19382263485, 0.0, 0.0, 0.0, 1.5661023917, 1.6295121906, -9.61974505765
27.1480269432, 1.51005841629, 1.03912046341, -13.8914126974, 1.4021940436, 1.09770736775, -9.67477997745, 0.0, 0.0, 0.0, 1.73300176805, 0.84646099475, -10.3411810716
27.1983180046, 1.64576065354, 1.08549099871, -14.1309057317, 1.77607257485, 2.0985054202, -10.0905329042, 0.0, 0.0, 0.0, 1.2741780345, 0.9966106129, -10.2191471189
27.2485349178, 1.65407615373, 0.784591978079, -14.1314824545, 1.78803668785, -0.6664010941, -9.5736832226, 0.0, 0.0, 0.0, 0.74715885685, 0.49710889515, -10.2897353856
27.2987749577, 1.71365533046, 0.944667711478, -14.2335735531, 1.4548361408, 1.52362979055, -10.2747802444, 0.0, 0.0, 0.0, 1.8364913455, 1.17308127965, -10.1754781065
27.3490030766, 1.75186756503, 0.879677338098, -14.0002901016, 1.53918313745, 0.56769716185, -8.8809610799, 0.0, 0.0, 0.0, 1.6079767872, 0.1591227029, -10.793424543
27.3992800713, 1.54197352274, 0.916220623176, -14.0145107207, 0.98883393945, 1.62771757365, -9.9134640318, 0.0, 0.0, 0.0, 1.10129660165, -0.6053841178, -10.2987084704
27.4496910572, 1.29158382067, 1.45513017081, -13.6556989191, 2.29890431295, 1.4679966651, -8.6488572877, 0.0, 0.0, 0.0, 1.07677017, 0.8530412569, -9.12562719075
27.5000939369, 1.28400026047, 1.65019100977, -13.8600836278, 1.14077817455, 0.96370930215, -9.53719267795, 0.0, 0.0, 0.0, 0.84765740605, 1.17427769095, -10.1706924613
27.5504848957, 1.0976566295, 1.35100553116, -13.7240631244, 1.2263215825, 1.1629117836, -9.6634140701, 0.0, 0.0, 0.0, 0.2368894374, 1.1868400096, -9.0065842664
27.6006710529, 1.53331277282, 0.911443309279, -14.2057921402, 1.8077774743, 0.66580288845, -9.35773098295, 0.0, 0.0, 0.0, 1.7312071511, 0.12981062605, -10.7467645023
27.650906086, 1.45880692354, 0.73451394018, -14.5618448035, 1.7060825138, -0.74835526815, -9.96191868945, 0.0, 0.0, 0.0, 1.0743773474, 1.91964193085, -10.0067841132
27.7011630535, 1.63096492064, 0.666474806597, -14.3952984091, 1.6558332392, 0.63708901725, -10.3262259303, 0.0, 0.0, 0.0, 1.6594224731, 0.30568308715, -11.0285193634
27.7515559196, 1.83908179511, 0.774233413583, -14.068028663, 1.69830584035, 1.07138631915, -9.72383284075, 0.0, 0.0, 0.0, 2.42333108815, 1.55712930695, -10.3214402851
27.8018889427, 2.11354676591, 1.11664278835, -14.1504543529, 2.2755742926, 0.68255264665, -10.4973127462, 0.0, 0.0, 0.0, 1.77367975225, 1.66241350135, -9.86500937415
27.8521690369, 2.04978094838, 1.23790528594, -14.0210582032, 1.5302100527, 1.1868400096, -9.64845892885, 0.0, 0.0, 0.0, 1.7575281997, 1.4536397295, -9.4576313265
27.9024128914, 1.89104130337, 0.844026536524, -14.0313631951, 2.00339072185, 0.1268195978, -9.92602635045, 0.0, 0.0, 0.0, 0.8685946038, -0.11306086785, -9.7603233854
27.9526178837, 2.01725482257, 0.965572077735, -14.0137822716, 1.8532411037, 0.46360937875, -10.1892368364, 0.0, 0.0, 0.0, 1.7024932799, 1.74616229235, -9.29551759535
28.0027940273, 2.13783358754, 1.02170818694, -14.1836394625, 1.5302100527, 0.68973111445, -9.68554767915, 0.0, 0.0, 0.0, 2.19960217505, 0.98524470555, -10.7270237158
28.0529949665, 2.28600359015, 0.902353176547, -14.3344253885, 1.9764714676, 1.11086789205, -10.0319087505, 0.0, 0.0, 0.0, 1.57986112165, 0.2297109696, -10.0863454646
28.1032919884, 2.26428093372, 0.844610186703, -14.1318903614, 1.8017954178, -0.0095712904, -9.8440721764, 0.0, 0.0, 0.0, 2.0733807829, 1.57028983125, -9.8883393945
28.1535739899, 2.10819705001, 0.792157633297, -13.7958379744, 2.30847560335, 0.75433732465, -10.2137632681, 0.0, 0.0, 0.0, 0.7310073043, 0.52223353245, -8.5770726097
28.2038700581, 2.06050858956, 0.417081945349, -13.7328606441, 1.69471660645, -0.04725824635, -9.46421158865, 0.0, 0.0, 0.0, 1.5086746493, 0.05084748025, -9.85902731765
28.2546770573, 2.2858634885, 0.686855143612, -13.9858759261, 1.7503497319, 0.28773691765, -10.3405828659, 0.0, 0.0, 0.0, 2.30967201465, 1.1928220661, -10.133603711
28.3049640656, 2.13612035766, 0.788412399881, -13.9883656449, 1.47816616115, 0.7393821834, -9.53838908925, 0.0, 0.0, 0.0, 1.4165509792, 0.7046862557, -10.2861461517
28.3551778793, 1.60116353444, 0.66838779648, -14.1560011582, 0.969093153, 0.7405785947, -9.7902336679, 0.0, 0.0, 0.0, 0.1375872995, 0.12382856955, -10.0025966737
28.4054229259, 1.81357348693, 1.19038679171, -13.8857665832, 3.05025060935, 4.8945186283, -9.6119683842, 0.0, 0.0, 0.0, -0.1064806057, -1.734796385, -8.93061214885
28.4556939602, 1.90054905119, 1.81505488836, -13.6851195546, 2.0171494518, 1.9657037659, -10.1036934285, 0.0, 0.0, 0.0, 1.2131610582, 1.52362979055, -9.23210779645
28.5059099197, 1.91233181856, 1.71277118214, -14.1828996891, 2.07278257725, 0.8626125473, -10.2496556071, 0.0, 0.0, 0.0, 1.6905291669, 1.20418797345, -10.1174521584
28.5561900139, 2.30159455984, 1.20022067349, -13.9212669841, 0.2105683888, 0.299102825, -10.0301141335, 0.0, 0.0, 0.0, 4.4829531411, -0.2847458894, -9.82074215605
28.6065759659, 2.25558025604, 0.771395844085, -13.5930099411, 1.7814564257, -0.6113661743, -8.5232341012, 0.0, 0.0, 0.0, 1.49132668545, 0.72442704215, -9.36251662815
28.6568369865, 2.58168600426, 1.03824424731, -13.6447428905, 2.5866412306, 1.35493579725, -10.0522477426, 0.0, 0.0, 0.0, 2.3844477209, 1.71864483245, -10.0678010895
28.7071979046, 2.59643835894, 1.27714511075, -13.7708859899, 2.31206483725, 1.23290184465, -9.86500937415, 0.0, 0.0, 0.0, 2.2839491717, 1.5625131578, -10.1988081269
28.7575039864, 2.62482835606, 1.51216687254, -13.9104392296, 2.14576366655, 0.61076796865, -9.6658068927, 0.0, 0.0, 0.0, 2.0829520733, 1.3339985995, -10.3082797608
28.8077590466, 2.44794306579, 1.22289981921, -13.7146352473, 2.1738793321, 0.07956135145, -9.53599626665, 0.0, 0.0, 0.0, 2.0015961049, 1.06899349655, -9.5653083435
28.8579690456, 2.54349906751, 1.17849377959, -13.6225358147, 2.13619237615, 0.55692946015, -9.6012006825, 0.0, 0.0, 0.0, 2.00697995575, 1.3854442854, -9.9960164115
28.9082119465, 2.54358391187, 1.14108361844, -13.4899413265, 1.9908284032, 1.86221418845, -9.7244310464, 0.0, 0.0, 0.0, 2.06680052075, 0.5252245607, -9.76331441365
28.9587469101, 2.6592884608, 1.41035193519, -13.7535866777, 2.4083759469, 2.4777678023, -10.1282198601, 0.0, 0.0, 0.0, 2.38265310395, 1.16350998925, -9.82792062385
29.0089960098, 2.77166781858, 1.4412248252, -13.9297266979, 2.1212372349, 1.36091785375, -9.90329453575, 0.0, 0.0, 0.0, 2.1188444123, 1.42073841875, -9.7160561673
29.05960989, 2.99308934572, 1.4824183151, -13.894822622, 2.4729821571, 1.31066857915, -9.89491965665, 0.0, 0.0, 0.0, 2.70807697755, 0.47318066915, -9.91286582615
29.1099379063, 3.12847505268, 1.49118054117, -13.9714957806, 2.8558337731, 1.67916325955, -9.6335037876, 0.0, 0.0, 0.0, 2.70807697755, 0.94935236655, -10.2137632681
29.1601219177, 2.94675818317, 1.43161621154, -13.608385268, 2.29172584515, 0.1651047594, -9.26919654675, 0.0, 0.0, 0.0, 2.44845572545, 1.5577275126, -10.111470102
29.2103641033, 3.10763130137, 1.52119633173, -13.6953431976, 3.1573294207, 1.54755801655, -10.6785690581, 0.0, 0.0, 0.0, 2.2767707039, 1.1976077113, -9.70349384865
29.2608680725, 3.02656417985, 1.43680836778, -13.7667620431, 2.57886455715, 1.23888390115, -9.65563739665, 0.0, 0.0, 0.0, 2.0386848552, 1.7204394494, -9.9888379437
29.3111400604, 3.19606046052, 1.29422626524, -13.8495448458, 2.89112790645, 1.0660024683, -9.82074215605, 0.0, 0.0, 0.0, 2.0889341298, 0.9463613383, -9.61376300115
29.3613400459, 3.29122626159, 1.22763456375, -13.662618497, 2.88275302735, 1.0217352502, -10.1509516748, 0.0, 0.0, 0.0, 2.63210486, 1.26400853845, -9.8297152408
29.4115800858, 3.2476081911, 1.07805932783, -13.573877253, 3.0017959517, 0.1926222193, -9.7914300792, 0.0, 0.0, 0.0, 2.23908374795, 1.268195978, -9.5186483028
29.461810112, 3.17245086678, 1.28288332949, -13.4680897572, 2.59202508145, 1.85144648675, -10.0133643753, 0.0, 0.0, 0.0, 2.3341984463, 0.49830530645, -9.68435126785
29.5120880604, 3.19851815335, 1.47621729118, -13.6740167824, 3.08016089185, 1.6546368279, -10.0546405652, 0.0, 0.0, 0.0, 2.1260228801, 1.24366954635, -9.70229743735
29.5624129772, 3.09980895682, 1.19857506558, -13.6994361134, 2.23549451405, 1.15992075535, -9.44387259655, 0.0, 0.0, 0.0, 2.15294213435, 0.0502492746, -9.7304131029
29.6126821041, 2.86634317894, 1.38926283842, -13.7820427116, 1.5397813431, 2.8247270793, -9.83509909165, 0.0, 0.0, 0.0, 2.321037922, 1.1497512593, -10.6474623643
29.662925005, 3.03975644675, 1.20659230575, -13.6086214011, 2.5866412306, -0.538385085, -9.47258646775, 0.0, 0.0, 0.0, 2.8199414341, 2.4143580034, -9.4660062056
29.7131929398, 3.14504610154, 1.03381427995, -13.9131239247, 2.5399811899, -0.0418743955, -9.8093762487, 0.0, 0.0, 0.0, 2.22711963495, 1.2011969452, -9.8452685877
29.7635629177, 3.06892912968, 1.20995049007, -13.7712613545, 2.48793729835, 1.60378934765, -9.11485948905, 0.0, 0.0, 0.0, 1.97467685065, 1.7563317884, -9.9326066126
29.8138010502, 3.05230981212, 1.10499443629, -13.7229334981, 2.5770699402, 0.9954142016, -9.3631148338, 0.0, 0.0, 0.0, 2.37786745875, 0.3002992363, -9.63888763845
29.8639740944, 3.08321675307, 1.2569690987, -14.0457226374, 2.3437697367, 1.1210373881, -9.7495556837, 0.0, 0.0, 0.0, 1.88374959185, 0.741775006, -9.49172904855
29.914192915, 2.89447871176, 1.1141815393, -13.8704992507, 2.3006989299, 1.59780729115, -9.34098122475, 0.0, 0.0, 0.0, 2.1260228801, 0.5934200048, -9.8847501606
29.9645040035, 2.92468108611, 1.27454869035, -13.5777947236, 2.2911276395, 1.2059825904, -9.06580662575, 0.0, 0.0, 0.0, 2.42333108815, 1.4632110199, -9.02632505285
30.0147199631, 2.80013047254, 0.872679023198, -13.5562044736, 2.1511475174, 0.0430708068, -9.6143612068, 0.0, 0.0, 0.0, 2.4370898181, 1.4009976323, -9.9720881855
30.0648989677, 2.88563716716, 0.83217838543, -13.7578136708, 2.2193429615, 0.1256231865, -9.82911703515, 0.0, 0.0, 0.0, 2.6536402634, 0.29491538545, -10.3902339349
30.1159338951, 2.92366927854, 0.706949477759, -13.9983576654, 2.68295234025, 0.96251289085, -9.87816989845, 0.0, 0.0, 0.0, 2.1870398564, 0.94695954395, -10.1677014331
30.166189909, 2.99959672322, 0.686149569927, -13.8992425058, 2.2911276395, -0.24466611085, -9.3726861242, 0.0, 0.0, 0.0, 2.5674986498, 1.35972144245, -9.7208418125
30.2164540291, 2.91235643411, 0.84070601105, -13.6604908084, 2.59920354925, 0.8279166196, -9.8512506442, 0.0, 0.0, 0.0, 1.79521515565, 0.3625126239, -9.3978107615
30.2667489052, 2.97101950748, 0.978322666963, -13.9308774611, 2.4729821571, 1.1102696864, -9.77408211535, 0.0, 0.0, 0.0, 2.0877377185, 0.5431707302, -10.0223374601
30.3170180321, 2.92297286811, 0.729558397458, -14.064656161, 2.3294128011, 0.7788637563, -9.8356972973, 0.0, 0.0, 0.0, 2.62911383175, 0.73878397775, -10.1748799008
30.3672840595, 2.80658876071, 0.725634938435, -13.9263017258, 2.4837498588, -0.12861421475, -9.71545796165, 0.0, 0.0, 0.0, 2.27258326435, 0.98763752815, -9.54796037965
30.417568922, 3.04334275548, 0.964033791787, -14.0102341469, 2.74038008265, 1.25563365935, -10.3543415959, 0.0, 0.0, 0.0, 2.41854544295, 1.28434753055, -9.5712904
30.4679129124, 2.78752507793, 0.857109975076, -13.8291289693, 2.22472681235, 0.85244305125, -9.82074215605, 0.0, 0.0, 0.0, 2.16969189255, 0.53778687935, -10.1222378037
30.518198967, 2.84716919439, 0.657637368735, -13.936900727, 2.0997018315, 0.7920242806, -9.46181876605, 0.0, 0.0, 0.0, 2.2121644937, -0.1591227029, -10.4656078467
30.568600893, 2.71814495258, 0.713576065434, -13.8305561382, 2.43170596725, 1.1557333158, -9.76929647015, 0.0, 0.0, 0.0, 1.79521515565, 0.51146583075, -10.1126665132
30.6189289093, 2.90089160495, 0.630618664909, -13.7354931671, 1.7168502155, -0.2189432679, -9.22492932865, 0.0, 0.0, 0.0, 3.1334011947, 1.44586305605, -10.3070833495
30.6691560745, 2.9135483985, 0.809213833694, -13.8678192828, 2.6536402634, 0.81535430095, -10.1443714127, 0.0, 0.0, 0.0, 2.01774765745, 0.90388873715, -9.74058259895
30.7194299698, 2.56975551827, 0.767974229489, -13.2842776119, 2.09790721455, -0.3565305674, -8.8450687409, 0.0, 0.0, 0.0, 1.42911329785, 1.4919248911, -8.7074814414
30.7697429657, 2.58300119267, 0.885777947758, -13.4742466846, 2.2169501389, 1.11565353725, -9.77647493795, 0.0, 0.0, 0.0, 2.34436794235, 1.0779665813, -9.8632147572
30.8200809956, 2.75208335692, 0.959993048244, -13.7585849796, 2.29531507905, 0.7250252478, -9.27637501455, 0.0, 0.0, 0.0, 2.30727919205, 1.20418797345, -10.4859468388
30.8703410625, 2.80206121436, 0.874163679526, -13.7735314195, 2.91984177765, 0.4989035121, -9.99781102845, 0.0, 0.0, 0.0, 1.339980656, 0.11425727915, -8.949156524
30.9205889702, 2.88259093503, 0.95119243948, -13.8792926463, 2.56690044415, 1.1270194446, -9.95474022165, 0.0, 0.0, 0.0, 2.1678972756, 0.92901337445, -9.9206424996
30.9708809853, 2.96420407505, 1.16415710074, -13.8983923736, 2.3497517932, 0.5455635528, -9.4648097943, 0.0, 0.0, 0.0, 2.3006989299, 0.65024954155, -10.2006027438
31.0212469101, 2.80838613901, 1.13888663466, -13.9510594248, 2.1547367513, 1.10967148075, -9.49292545985, 0.0, 0.0, 0.0, 2.32522536155, 0.84287176085, -10.2347004658
31.0715010166, 2.74693923817, 0.817855745321, -13.9875551702, 2.57886455715, 0.6807580297, -10.2915300026, 0.0, 0.0, 0.0, 1.986042758, 0.59641103305, -9.83868832555
31.121792078, 2.64551012786, 0.919746778305, -13.8055321713, 1.9202401365, 0.17766707805, -8.70449041315, 0.0, 0.0, 0.0, 1.69830584035, 1.4859428346, -10.5367943191
31.1720840931, 2.56764747966, 0.89850733714, -13.6528632405, 2.01894406875, 0.6592226263, -9.33021352305, 0.0, 0.0, 0.0, 2.1678972756, 1.2610175102, -9.89850889055
31.2224419117, 2.36303434877, 0.654244682788, -13.8706974657, 1.5505490448, 0.16929219895, -9.1513500337, 0.0, 0.0, 0.0, 2.2145573163, 0.3601198013, -11.0524475894
31.2727730274, 2.4239756913, 0.903500136853, -13.9799616301, 1.74496588105, 0.86560357555, -9.74536824415, 0.0, 0.0, 0.0, 2.08953233545, 1.16111716665, -10.3525469789
31.3230659962, 2.31221801196, 0.812851947765, -13.9088254457, 1.9429719512, 0.6293123438, -9.54676396835, 0.0, 0.0, 0.0, 1.7419748528, 0.72562345345, -9.9625168951
31.3732709885, 2.38371796212, 0.601443884353, -13.8796747599, 2.04287229475, 0.07357929495, -9.44626541915, 0.0, 0.0, 0.0, 1.7814564257, 0.2009970984, -9.7914300792
31.4234790802, 2.09857146297, 0.924512604651, -13.6048620678, 1.3100703735, 0.6963113766, -9.5449693514, 0.0, 0.0, 0.0, 1.710868159, 1.14197458585, -9.65204816275
31.473692894, 1.97174382282, 1.05146378921, -13.8567637567, 1.75334076015, 0.7932206919, -10.1653086104, 0.0, 0.0, 0.0, 1.29391882095, 1.0360921858, -9.8991070962
31.52394104, 1.81877260371, 0.824310256833, -13.5358471798, 1.18863462655, 0.4857429878, -8.38624500735, 0.0, 0.0, 0.0, 1.43509535435, 1.10847506945, -9.57787066215
31.5745038986, 1.68435631366, 0.786225932341, -13.8364567299, 1.28434753055, 0.38584264425, -9.8177511278, 0.0, 0.0, 0.0, 1.43270253175, 0.2356930261, -10.1030952228
31.6248559952, 1.38317960828, 0.785385657306, -13.5681347263, 0.29012974025, 2.90668125335, -8.9922273308, 0.0, 0.0, 0.0, 1.37407837805, -0.6352944003, -9.02273581895
31.6751949787, 1.46496397021, 0.906044321869, -13.9355905807, 2.1188444123, 0.64426748505, -10.0947203437, 0.0, 0.0, 0.0, 1.41595277355, 0.68853470315, -11.4544417862
31.725661993, 1.39839105059, 0.896807754477, -13.9468827162, 1.34536450685, 0.43489550755, -10.5547404886, 0.0, 0.0, 0.0, 0.945164927, 1.9597217094, -9.15194823935
31.7759339809, 1.3214273423, 0.888402883193, -13.9652830912, 1.0193424276, 0.7692924659, -9.7423772159, 0.0, 0.0, 0.0, 0.81176506705, 0.3218346397, -9.6765745944
31.8262190819, 1.14970055885, 0.89210726243, -14.1491623578, 0.7573283529, 0.99720881855, -9.82193856735, 0.0, 0.0, 0.0, 1.0277173067, 0.52103712115, -10.1958170986
31.8763999939, 0.812302388429, 0.369314397406, -13.83950157, 1.1401799689, 0.68614188055, -10.4799647823, 0.0, 0.0, 0.0, 0.2596212521, -0.1124626622, -8.92104085845
31.9266180992, 0.768392331908, 0.565491180521, -14.055471564, 0.81056865575, 1.47577333855, -9.98823973805, 0.0, 0.0, 0.0, 0.7633104094, 0.22552353005, -10.2825569179
31.9769198895, 0.811869170434, 0.271968599948, -14.1645282152, 1.0839486378, -0.64666030765, -10.1724870783, 0.0, 0.0, 0.0, 0.9320044027, 0.90867438235, -10.145567824
32.0272459984, 0.677269623968, 0.342083835736, -13.9000589892, 1.00797652025, -0.13818550515, -9.92243711655, 0.0, 0.0, 0.0, 0.41455651545, 1.77248334095, -9.0197447907
32.0775949955, 0.703136480453, -0.109844979048, -13.8604506297, 0.8626125473, -1.44227382215, -9.511469835, 0.0, 0.0, 0.0, 0.8697910151, -0.4749752861, -10.1910314534
32.1278729439, 0.546703477596, -0.172743311035, -13.8404228296, 0.6735795619, 0.20398812665, -10.1868440138, 0.0, 0.0, 0.0, 0.4749752861, 1.328016543, -9.76211800235
32.17811203, 0.598710048295, 0.138300548289, -13.9053857079, 0.4606183505, 0.29730820805, -9.4540420926, 0.0, 0.0, 0.0, 0.9918249677, 0.20518453795, -10.4703934919
32.2284638882, 0.480745725204, -0.199678607866, -13.9605943115, 0.5240281494, -0.6891329088, -8.86600593865, 0.0, 0.0, 0.0, 0.48993042735, -0.15732808595, -10.16949605
32.2788109779, 0.574483314688, -0.266251732641, -13.9862797407, 0.74117680035, -0.7142575461, -10.0103733471, 0.0, 0.0, 0.0, 0.8590233134, 0.93499543095, -9.7316095142
32.329212904, 0.432512987944, 0.0, -14.0814477997, 0.72921268735, 0.14775679555, -10.6528462152, 0.0, 0.0, 0.0, 0.27457639335, -0.09990034355, -9.7615197967
32.3794810772, 0.579160207368, 0.144436269332, -14.37074825, 1.0313065406, 0.27218357075, -10.1425767957, 0.0, 0.0, 0.0, 0.8889335959, 0.969093153, -10.3962159913
32.4304881096, 0.578588621191, 0.305200409592, -14.3758520229, 1.03310115755, 0.2859423007, -10.7712909339, 0.0, 0.0, 0.0, 0.66939212235, 0.4283152454, -9.5736832226
32.4807419777, 0.327280102176, 0.307745582806, -14.0868727463, 0.68255264665, 0.203389921, -9.0006022099, 0.0, 0.0, 0.0, 0.53659046805, 0.8279166196, -10.5314104682
32.5309329033, 0.570716237645, 0.359205377341, -14.4188542622, 1.052841944, 0.6687939167, -10.52841944, 0.0, 0.0, 0.0, 0.89910309195, 0.76390861505, -11.00698396
32.5811829567, 0.483262258877, 0.249802559495, -14.2118852894, 0.5431707302, -0.2333002035, -9.3954179389, 0.0, 0.0, 0.0, 0.5647061336, 0.86321075295, -9.89252683405
32.631385088, 0.385808456142, -0.0889714652334, -13.9994258281, 0.8470592004, 0.21714865095, -9.46301517735, 0.0, 0.0, 0.0, 0.0394815729, -0.6269195212, -10.4386885925
32.6815230846, 0.543831380185, 0.135157576986, -13.9783632123, 1.28793676445, -0.18604195715, -9.9613204838, 0.0, 0.0, 0.0, 0.39900316855, 0.8362914987, -9.2697947524
32.7317779064, 0.605737544547, 0.469649420825, -14.1358097994, 0.9379864592, 0.45762732225, -9.8237331843, 0.0, 0.0, 0.0, 0.7585247642, 1.3483555351, -10.3184492569
32.7820110321, 0.553993608807, 0.211390234699, -14.1334487128, 1.1054840412, -0.61435720255, -9.25244678855, 0.0, 0.0, 0.0, 0.1806581063, -0.23270199785, -10.0199446375
32.8323090076, 0.709560560049, 0.0496412134077, -14.2631512746, 1.0301101293, -0.3254238736, -9.858429112, 0.0, 0.0, 0.0, 1.36689991025, -0.12861421475, -10.8538433136
32.8826780319, 0.668902740473, 0.143846131353, -14.1807643142, 1.0061819033, 0.4402793584, -9.7543413289, 0.0, 0.0, 0.0, 0.251246373, 0.36670006345, -9.6490571345
32.9329900742, 0.69544286906, 0.146175896944, -14.029141622, 0.92063849535, 0.215354034, -9.4492564474, 0.0, 0.0, 0.0, 0.586241537, 0.80219377665, -10.4404832094
32.9832010269, 0.813499245155, 0.616286978355, -14.145045372, 0.873380249, 1.6474583601, -9.56112090395, 0.0, 0.0, 0.0, 1.28554394185, 1.59182523465, -10.6319090174
33.0335330963, 0.883559904842, 0.475844002037, -14.4356564623, 1.18863462655, -0.13579268255, -9.6227360859, 0.0, 0.0, 0.0, 0.90867438235, 1.00079805245, -11.3240329545
33.0837628841, 0.913869433893, 0.520823780798, -14.1831445806, 1.3710873498, -0.083748791, -9.9601240725, 0.0, 0.0, 0.0, 0.693918554, 1.06181502875, -9.6681997153
33.1339900494, 0.990323851882, 0.63797230705, -14.1731716427, 1.0791629926, 0.8817551281, -9.81715292215, 0.0, 0.0, 0.0, 0.9894321451, 1.5661023917, -10.4303137134
33.1842498779, 1.08730165162, 0.725653280467, -14.2663759119, 1.1581261384, 0.9176474671, -9.4265246327, 0.0, 0.0, 0.0, 1.19940232825, 1.0863414604, -11.0345014199
33.2345719337, 1.04692371676, 0.661164416292, -14.2253111301, 0.7573283529, 0.16689937635, -9.48813981465, 0.0, 0.0, 0.0, 1.3004990831, 0.67776700145, -10.7688981113
33.2848529816, 0.883538690837, 0.308847309517, -14.0506774925, 0.98763752815, 0.37028929735, -9.5138626576, 0.0, 0.0, 0.0, 0.65623159805, 0.5216353268, -10.4620186128
33.335203886, 0.848680345297, 0.527443797913, -13.9136521929, 0.65623159805, 0.4713860522, -9.2470629377, 0.0, 0.0, 0.0, 0.5778666579, 0.9595218626, -10.6863457316
33.385420084, 0.963609663503, 0.729796033175, -14.1335514955, 1.3663017046, 1.35015015205, -10.6683995621, 0.0, 0.0, 0.0, 0.67178494495, 0.49112683865, -10.1168539528
33.4357159138, 1.00482975875, 0.568894815694, -14.1933653638, 1.02831551235, 0.2919243572, -10.4883396614, 0.0, 0.0, 0.0, 1.83589313985, 0.801595571, -9.2458665264
33.4860069752, 1.24708893225, 0.689782212177, -14.0730711337, 1.39322095885, 0.6532405698, -9.59701324295, 0.0, 0.0, 0.0, 1.3052847283, 1.7276179172, -10.0707921177
33.5362789631, 1.16339068396, 0.693842562346, -13.8607236393, 1.17906333615, 0.4558327053, -9.96072227815, 0.0, 0.0, 0.0, 1.3483555351, 1.938186306, -9.4360959231
33.5865540504, 1.164275617, 0.820879320846, -13.6666439902, 1.3734801724, 1.1353943237, -8.68056218715, 0.0, 0.0, 0.0, 0.58085768615, 0.4582255279, -9.45822953215
33.6372389793, 0.907145711519, 0.505522468063, -13.4601142455, 0.9152546445, -0.023928226, -9.260223462, 0.0, 0.0, 0.0, 0.68494546925, 0.6173482308, -9.2925265671
33.6876080036, 0.910968176982, 0.404442581729, -13.6277880332, 0.4462614149, 0.586241537, -9.5210411254, 0.0, 0.0, 0.0, 1.1437692028, 0.59521462175, -9.655039191
33.7378749847, 0.911383485365, 0.22100736148, -13.7776612147, 0.7704888772, 0.0071784678, -9.786644434, 0.0, 0.0, 0.0, 0.885344362, 0.60478591215, -9.70110102605
33.7881169319, 0.96443567108, 0.544216986926, -13.9590658624, 1.18624180395, 1.27118700625, -10.9734844436, 0.0, 0.0, 0.0, 0.8913264185, 0.71784678, -9.45344388695
33.8383688927, 0.869216559044, 0.758288911447, -14.0649540155, 0.789631458, 1.1868400096, -9.6323073763, 0.0, 0.0, 0.0, 0.29252256285, 0.3529413335, -9.7124669334
33.8885910511, 0.987425739364, 0.764551921959, -14.0641071387, 0.9032905315, -1.0755737587, -9.2398844699, 0.0, 0.0, 0.0, 1.016949605, 1.46380922555, -10.9645113588
33.9388558865, 1.27357849093, 0.614422762607, -14.3547696829, 0.7621139981, 0.03888336725, -9.9840522985, 0.0, 0.0, 0.0, 1.8484554585, 0.91346002755, -10.8831553904
33.9890599251, 1.21847019011, 0.41602510059, -14.334789849, 1.37288196675, -0.1172483074, -9.9469635482, 0.0, 0.0, 0.0, 0.86679998685, 0.70887369525, -10.5631153677
34.0398108959, 1.07839954079, 0.720176722598, -14.3374996176, 0.96012006825, 0.76031938115, -9.51685368585, 0.0, 0.0, 0.0, 0.9667003304, 1.1078768638, -11.2319092844
34.0900020599, 1.03099667002, 0.47856257636, -14.1290880048, 0.91944208405, 1.23409825595, -10.1820583686, 0.0, 0.0, 0.0, 0.88833539025, 0.52941200025, -9.2410808812
34.1402220726, 0.897098743321, 0.351121130544, -14.1221700662, 1.05104732705, 0.5228317381, -10.2963156478, 0.0, 0.0, 0.0, 0.7980063371, 0.5371886737, -10.2077812116
34.190392971, 0.993698639541, 0.576852165464, -13.8415819116, 0.9738787982, 0.17048861025, -9.98943614935, 0.0, 0.0, 0.0, 1.59541446855, 0.95174518915, -9.1393859207
34.2405910492, 0.966184094361, 0.118677158351, -14.1181195973, 1.0791629926, 0.622133876, -10.6636139169, 0.0, 0.0, 0.0, 1.03190474625, 0.0394815729, -10.1425767957
34.2908980846, 0.979786027279, 0.154276987819, -14.1922196932, 1.41954200745, 0.8697910151, -10.636096457, 0.0, 0.0, 0.0, 0.8111668614, 0.27337998205, -9.846464999
34.3412070274, 0.966648942345, 0.159362873635, -13.8522277435, 1.4081761001, -0.38823546685, -9.4851487864, 0.0, 0.0, 0.0, 0.36789647475, 0.40378881375, -9.45703312085
34.3914599419, 0.878436067004, 0.314931762696, -13.7677154749, 0.57846486355, 0.0849452023, -9.62213788025, 0.0, 0.0, 0.0, 0.981057266, 0.76869426025, -9.2398844699
34.4418621063, 0.77507807018, 0.358239043725, -13.8115052015, -0.1423729447, -0.5814558918, -9.65922663055, 0.0, 0.0, 0.0, -0.08075776275, 0.8051848049, -9.8644111685
34.4921579361, 0.45857657583, 0.378262309531, -13.8524757692, 1.28434753055, -0.1854437515, -9.41396231405, 0.0, 0.0, 0.0, 0.5994020613, 0.8662017812, -10.1964153042
34.5423500538, 0.797407879253, 0.382130570077, -14.0173172694, 1.1533404932, -0.4007977855, -9.72024360685, 0.0, 0.0, 0.0, 1.18384898135, 1.3782658176, -10.5188481496
34.5925979614, 0.820524874132, 0.559513471895, -13.8166152284, 1.25683007065, 0.7345965382, -9.90329453575, 0.0, 0.0, 0.0, 0.48753760475, 1.01276216545, -9.3643112451
34.6429200172, 0.966126531644, 0.784173600737, -13.8056811024, 1.6354942471, 1.70189507425, -10.2963156478, 0.0, 0.0, 0.0, 0.4977071008, -0.9475577496, -9.9349994352
34.6932020187, 0.959948885157, 0.343813791173, -13.8237349144, 0.86799639815, -0.46600220135, -9.24766114335, 0.0, 0.0, 0.0, 0.7633104094, 0.26859433685, -10.2957174421
34.7434449196, 0.92633942877, -0.0922160824061, -13.700081346, 1.1306086785, -0.4295116567, -8.95812960875, 0.0, 0.0, 0.0, 0.63230337205, -0.28893332895, -9.68435126785
34.7937209606, 1.14531195217, 0.430421023622, -13.6907315735, 1.1569297271, 0.97208418125, -9.49890751635, 0.0, 0.0, 0.0, 1.17547410225, 1.2430713407, -9.7842516114
34.8439788818, 1.11759494624, 0.0128835590589, -13.5962525574, 1.45184511255, 0.01734796385, -9.53360344405, 0.0, 0.0, 0.0, 0.5802594805, -0.97567341515, -9.7806623775
34.8942070007, 1.15882535874, 0.245971826233, -13.8043624837, 1.23409825595, -0.16331014245, -10.1156575415, 0.0, 0.0, 0.0, 0.9511469835, 0.4917250443, -9.59222759775
34.9445710182, 1.37939262152, 0.254833555782, -13.868096429, 1.9848463467, 0.0131605243, -9.9481599595, 0.0, 0.0, 0.0, 1.52362979055, 1.5565311013, -10.3100743778
34.9948499203, 1.26177768519, 0.366526450252, -13.8960694453, 1.3363914221, -0.19202401365, -9.1920280179, 0.0, 0.0, 0.0, 0.8075776275, 1.45663075775, -9.9206424996
35.0451390743, 0.986537101182, 0.0, -13.7242532368, 0.7465606512, 0.16331014245, -8.6847496267, 0.0, 0.0, 0.0, 0.06999006105, -0.15134602945, -9.84108114815
35.095402956, 1.03321447795, 0.0974389455613, -13.6605837981, 1.1904292435, -0.10348957745, -9.61256658985, 0.0, 0.0, 0.0, 0.5551348432, 0.16809578765, -9.5497549966
35.1456160545, 1.17885919027, -0.00531886300097, -13.4469181222, 2.79302217985, -1.31425781305, -9.0352981376, 0.0, 0.0, 0.0, -0.33320054705, 0.66460647715, -11.0566350289
35.1959049702, 1.06167258743, -0.440798740525, -13.8280250316, 1.32502551475, -3.4743784152, -9.2111705987, 0.0, 0.0, 0.0, -0.48753760475, 3.43310222535, -10.3005030873
35.2462890148, 0.782910644677, -0.0142506393272, -14.1471940328, 0.69690958225, -0.15972090855, -9.1836531388, 0.0, 0.0, 0.0, 0.3445664544, 0.8650053699, -10.6265251666
35.2966210842, 0.913434613599, 0.58491654657, -13.9233833321, 1.14077817455, 2.1643080417, -9.6801638283, 0.0, 0.0, 0.0, 2.18883447335, 1.1700902514, -9.8069834261
35.3468930721, 1.22451937626, 1.09076086061, -13.9586216239, 3.6275190616, 2.69013080805, -10.8999051486, 0.0, 0.0, 0.0, 1.5457633996, 0.9786644434, -9.607182739
35.3970909119, 1.40343061843, 1.10367664815, -14.1316232978, 1.4763715442, -0.5036891573, -9.06939585965, 0.0, 0.0, 0.0, 1.10727865815, 1.25324083675, -10.5828561541
35.4472460747, 1.42464815823, 0.920236975148, -14.1024805202, 1.06301144005, 0.299102825, -10.3651092975, 0.0, 0.0, 0.0, 1.4967105363, 0.90628155975, -10.3896357292
35.497467041, 1.05314648086, 0.605425825367, -13.5855944478, 0.8075776275, 0.4869393991, -9.1357966868, 0.0, 0.0, 0.0, 0.76869426025, 0.2787638329, -9.70469025995
35.5477778912, 1.054669753, 0.698722234829, -13.8408900349, 1.2370892842, 0.801595571, -10.1802637517, 0.0, 0.0, 0.0, 0.63469619465, 0.813559684, -10.239486111
35.5981550217, 1.05043932196, 0.256647704652, -13.7238688244, 1.0552347666, 0.2057827436, -9.47139005645, 0.0, 0.0, 0.0, 0.55932228275, -0.5563312545, -9.6059863277
35.6484699249, 1.28893309737, 0.569361451259, -13.8600146379, 1.5445669883, 0.72562345345, -9.82074215605, 0.0, 0.0, 0.0, 1.01276216545, 1.12043918245, -9.79801034135
35.6986730099, 1.21333006116, 0.498736785246, -14.0782367396, 1.26161571585, -0.1531406464, -9.64486969495, 0.0, 0.0, 0.0, 0.9858429112, 0.29611179675, -10.3244313133
35.7489409447, 1.32152366372, 0.490943492829, -14.0410980055, 1.3543375916, 0.40019957985, -9.6921279413, 0.0, 0.0, 0.0, 1.0995019847, 0.7345965382, -9.8045906035
35.7991700172, 1.22902653613, 0.466725184007, -13.9608016743, 1.6175480776, 0.6329015777, -9.83031344645, 0.0, 0.0, 0.0, 0.7992027484, 0.74476603425, -9.93440122955
35.8494820595, 1.24740013934, 0.227311321896, -13.7008029837, 1.00678010895, 0.2763710103, -8.7852481759, 0.0, 0.0, 0.0, 1.12163559375, 0.40618163635, -9.882357338
35.8997879028, 1.39763262714, 0.303795462882, -13.7953490235, 1.5445669883, 0.6005984726, -9.9960164115, 0.0, 0.0, 0.0, 0.90029950325, -0.1148554848, -9.88415195495
35.950813055, 1.42205831957, 0.426070024121, -13.9342809769, 1.45663075775, 0.58683974265, -9.8416793538, 0.0, 0.0, 0.0, 1.06301144005, 0.634097989, -9.89611606795
36.0014979839, 1.41495976127, 0.627746299645, -13.9560930845, 1.8089738856, -1.38245325715, -10.1617193765, 0.0, 0.0, 0.0, 1.4189438018, 1.2957134379, -9.9361958465
36.0518350601, 1.68657695084, 0.178013376486, -13.9258789688, 1.58943241205, 0.23988046565, -10.2867443574, 0.0, 0.0, 0.0, 1.80359003475, 0.6197410534, -9.85902731765
36.1019899845, 1.70999415553, 0.41330906654, -13.9374459745, 1.30468652265, 0.514456859, -9.35055251515, 0.0, 0.0, 0.0, 1.4404792052, 0.9798608547, -9.89133042275
36.1522181034, 1.5607416879, 0.358515132087, -14.0976081028, 1.5038890041, 0.7322037156, -10.0271231053, 0.0, 0.0, 0.0, 0.5216353268, 0.2344966148, -9.48574699205
36.2023909092, 1.55401984158, 0.384893930878, -14.1084191141, 1.62173551715, 0.2333002035, -10.0091769358, 0.0, 0.0, 0.0, 1.25443724805, 0.9786644434, -10.1958170986
36.2525780201, 1.48428255591, 0.0631303565057, -14.0972547311, 0.96729853605, -0.777667345, -9.37328432985, 0.0, 0.0, 0.0, 1.1916256548, 1.1593225497, -10.3698949427
36.3028628826, 1.6570115953, 0.0, -14.0357135359, 1.7647066675, 0.2703889538, -10.1958170986, 0.0, 0.0, 0.0, 1.71744842115, 0.56051869405, -9.90329453575
36.3531680107, 1.71125117565, 0.0839459168872, -14.0650287117, 1.37407837805, -0.15732808595, -9.64247687235, 0.0, 0.0, 0.0, 1.7479569093, 0.94576313265, -10.085747259
36.4034109116, 1.65055110933, 0.280604077905, -14.1080184228, 1.5876377951, 0.59760744435, -10.1001041946, 0.0, 0.0, 0.0, 0.78305119585, -0.33678978095, -9.36969509595
36.453660965, 1.57451067544, 0.242936757404, -14.1857413743, 1.45543434645, 0.6735795619, -10.0725867347, 0.0, 0.0, 0.0, 1.16350998925, 0.370887503, -9.79322469615
