TIME, IMU1_acc_x, IMU1_acc_y, IMU1_acc_z, IMU1_acc_raw_x, IMU1_acc_raw_y, IMU1_acc_raw_z,IMU2_acc_x, IMU2_acc_y,IMU2_acc_z, IMU2_acc_raw_x, IMU2_acc_raw_y, IMU2_acc_raw_z1.90734863281e-06, 0.0, 0.0, 0.0, 0.0, 0.0, 0.0, 0.0, 0.0, 0.0, 0.0, 0.0, 0.0
0.0501418113708, 0.0, 0.888036452092, -14.0929485607, 0.49232324995, 0.62991054945, -9.86620578545, 0.0, 0.0, 0.0, 0.33439695835, 1.0145567824, -10.0869436703
0.1005859375, 0.0, 0.86248579334, -14.0603770182, 0.53539405675, 0.63349978335, -9.8799645154, 0.0, 0.0, 0.0, 0.39421752335, 1.03429756885, -10.0109715527
0.150954008102, 0.0, 0.852547991717, -14.0647750338, 0.4953142782, 0.6520441585, -9.87099143065, 0.0, 0.0, 0.0, 0.2943171798, 0.95174518915, -10.060024416
0.201258897781, 0.0, 0.855379588972, -14.0698347937, 0.54735816975, 0.56291151665, -9.88774118885, 0.0, 0.0, 0.0, 0.3290131075, 0.9511469835, -10.0606226217
0.251456022263, 0.0, 0.878383161242, -14.0662478411, 0.53180482285, 0.66460647715, -9.8847501606, 0.0, 0.0, 0.0, 0.3242274623, 1.00199446375, -10.0014002623
0.301610946655, 0.0, 0.900494724786, -14.072682716, 0.54376893585, 0.7525427077, -9.9505527821, 0.0, 0.0, 0.0, 0.3672982691, 1.01515498805, -10.0049894962
0.351809978485, 0.0, 0.882553433781, -14.0523381022, 0.52821558895, 0.60478591215, -9.8656075798, 0.0, 0.0, 0.0, 0.32841490185, 0.99122676205, -10.0061859075
0.402104854584, 0.0, 0.863297181963, -14.0450304387, 0.50787659685, 0.63110696075, -9.89850889055, 0.0, 0.0, 0.0, 0.4390829471, 1.0265208954, -9.97627562505
0.452320814133, 0.0, 0.849821094735, -14.0573957277, 0.54975099235, 0.5599204884, -9.83629550295, 0.0, 0.0, 0.0, 0.41096728155, 1.0301101293, -10.1234342149
0.502547979355, 0.0, 0.841005211629, -14.0550166356, 0.55214381495, 0.6137589969, -9.84108114815, 0.0, 0.0, 0.0, 0.39661034595, 0.97926264905, -10.0354979844
0.55276799202, 0.0, 0.844705895782, -14.050855901, 0.610169763, 0.562313311, -9.84108114815, 0.0, 0.0, 0.0, 0.40977087025, 1.0001998468, -10.0091769358
0.602995872498, 0.0804435002562, 0.831369061527, -14.0470669214, 0.5874379483, 0.4606183505, -9.87697348715, 0.0, 0.0, 0.0, 0.4139583098, 0.9858429112, -10.0755777629
0.653228998184, 0.0989546599097, 0.84009415827, -14.0514991778, 0.53539405675, 0.62153567035, -9.8787681041, 0.0, 0.0, 0.0, 0.47078784655, 1.0360921858, -10.0265248996
0.703425884247, 0.176516840467, 0.843525678448, -14.0667327455, 0.56650075055, 0.6041877065, -9.9170532657, 0.0, 0.0, 0.0, 0.60717873475, 1.00199446375, -10.0678010895
0.753561019897, 0.223222852141, 0.84858792868, -14.0467021383, 0.58444692005, 0.6496513359, -9.8668039911, 0.0, 0.0, 0.0, 0.41814574935, 0.9978070242, -9.9613204838
0.803773880005, 0.2652073611, 0.842695404514, -14.0283393405, 0.56889357315, 0.61435720255, -9.8632147572, 0.0, 0.0, 0.0, 0.4031906081, 1.0863414604, -10.0331051618
0.854029893875, 0.307573800404, 0.845723507428, -14.0362870975, 0.58325050875, 0.6544369811, -9.86979501935, 0.0, 0.0, 0.0, 0.5300102059, 1.0564311779, -10.0193464318
0.904251813889, 0.283765858027, 0.828909526603, -14.0458944906, 0.5156532703, 0.5659025449, -9.9098747979, 0.0, 0.0, 0.0, 0.3912264951, 0.97328059255, -10.0181500206
0.954456806183, 0.26509830862, 0.815342871362, -14.0615019672, 0.5527420206, 0.62273208165, -9.8404829425, 0.0, 0.0, 0.0, 0.3768695595, 0.9475577496, -10.0695957064
1.00466990471, 0.269301923365, 0.863896862126, -14.0671771174, 0.5706881901, 0.7465606512, -9.8835537493, 0.0, 0.0, 0.0, 0.3900300838, 1.0336993632, -10.03609619
1.05483198166, 0.243305780247, 0.843102625778, -14.0634057334, 0.54137611325, 0.5814558918, -9.8620183459, 0.0, 0.0, 0.0, 0.3158525832, 0.96969135865, -10.0067841132
1.10502481461, 0.238563549108, 0.833491042302, -14.043931038, 0.57607204095, 0.57248280705, -9.8141618939, 0.0, 0.0, 0.0, 0.3720839143, 1.0001998468, -10.0169536092
1.15533185005, 0.230887526973, 0.838651111854, -14.0538899977, 0.454636294, 0.60239308955, -9.8440721764, 0.0, 0.0, 0.0, 0.32123643405, 1.06061861745, -10.0432746578
1.2056658268, 0.240736804813, 0.856480156085, -14.0499352613, 0.44566320925, 0.63349978335, -9.8488578216, 0.0, 0.0, 0.0, 0.39421752335, 1.05224373835, -10.0277213109
1.2559800148, 0.257796430763, 0.872021728164, -14.0380919393, 0.5970092387, 0.5551348432, -9.83509909165, 0.0, 0.0, 0.0, 0.4319044793, 1.1617153723, -10.0384890127
1.30619287491, 0.247514338112, 0.85299225393, -14.0330917436, 0.52701917765, 0.61435720255, -9.8787681041, 0.0, 0.0, 0.0, 0.3625126239, 1.01036934285, -10.0181500206
1.35640001297, 0.229055322992, 0.861141780001, -14.0284120713, 0.5072783912, 0.6269195212, -9.82193856735, 0.0, 0.0, 0.0, 0.37148570865, 1.0540383553, -10.0271231053
1.40661382675, 0.23168968624, 0.854969982349, -14.044777205, 0.5479563754, 0.5802594805, -9.84586679335, 0.0, 0.0, 0.0, 0.3481556883, 1.00797652025, -10.0791669969
1.45681095123, 0.200080251218, 0.83129443219, -14.0244647641, 0.4809573426, 0.54735816975, -9.80159957525, 0.0, 0.0, 0.0, 0.2955135911, 1.0624132344, -9.98584691545
1.50701284409, 0.172874004371, 0.839129773651, -14.038029302, 0.53180482285, 0.669990328, -9.8249295956, 0.0, 0.0, 0.0, 0.2679961312, 1.0516455327, -9.89970530185
1.55729389191, 0.208111375285, 0.821119387794, -14.1089811867, 0.4929214556, 0.6173482308, -9.9577312499, 0.0, 0.0, 0.0, 0.3385843979, 0.9284151688, -10.0606226217
1.60754585266, 0.242663946068, 0.810627255888, -14.0776833454, 0.5790630692, 0.5527420206, -9.82313497865, 0.0, 0.0, 0.0, 0.4582255279, 0.945164927, -10.0731849404
1.65784692764, 0.213614947892, 0.836092899486, -14.0615000277, 0.5276173833, 0.6604190376, -9.8081798374, 0.0, 0.0, 0.0, 0.3888336725, 1.05344014965, -10.0127661697
1.70808291435, 0.196546387312, 0.829908145488, -14.0794375206, 0.5395814963, 0.61435720255, -9.9074819753, 0.0, 0.0, 0.0, 0.3433700431, 0.98644111685, -10.0773723799
1.75825691223, 0.204067828245, 0.864334313358, -14.0678510069, 0.48275195955, 0.68973111445, -9.8871429832, 0.0, 0.0, 0.0, 0.37507494255, 1.088734283, -9.9613204838
1.80846595764, 0.166315211693, 0.842770358946, -14.059824283, 0.4630111731, 0.5276173833, -9.8201439504, 0.0, 0.0, 0.0, 0.2955135911, 1.08095760955, -10.0594262104
1.85870790482, 0.184174620772, 0.83738433225, -14.050465905, 0.4689932296, 0.56889357315, -9.83868832555, 0.0, 0.0, 0.0, 0.346959277, 0.9954142016, -10.0743813517
1.90903282166, 0.14881648611, 0.849298013194, -14.071720327, 0.47676990305, 0.61435720255, -9.9003035075, 0.0, 0.0, 0.0, 0.2931207685, 1.07138631915, -10.1024970172
1.95935702324, 0.144822125944, 0.840881477589, -14.070407829, 0.50668018555, 0.658026215, -9.9218389109, 0.0, 0.0, 0.0, 0.34277183745, 0.95653083435, -9.9984092341
2.00951480865, 0.146728110463, 0.875194516269, -14.0810631789, 0.4474578262, 0.63230337205, -9.8967142736, 0.0, 0.0, 0.0, 0.346959277, 1.20658079605, -10.0965149607
2.05973982811, 0.139779878474, 0.860651528191, -14.0605257035, 0.45762732225, 0.6197410534, -9.834500886, 0.0, 0.0, 0.0, 0.2775674216, 1.03908321405, -10.0438728635
2.11000585556, 0.0645307940391, 0.86373465955, -14.0371525272, 0.442672181, 0.586241537, -9.8309116521, 0.0, 0.0, 0.0, 0.251246373, 1.0911271056, -10.0037930849
2.16021299362, 0.0655809706824, 0.862618953305, -14.061011004, 0.43728833015, 0.6843472636, -9.8656075798, 0.0, 0.0, 0.0, 0.29611179675, 1.00678010895, -10.0528459482
2.21050786972, 0.0578418042966, 0.885257475223, -14.0511053543, 0.44327038665, 0.64785671895, -9.8488578216, 0.0, 0.0, 0.0, 0.2883351233, 1.12283200505, -10.0384890127
2.26069402695, 0.0, 0.88127432995, -14.0380835005, 0.5084748025, 0.6640082715, -9.8010013696, 0.0, 0.0, 0.0, 0.27577280465, 1.0480562988, -10.0217392544
2.31095480919, 0.0, 0.87674601571, -14.0717090602, 0.41934216065, 0.5790630692, -9.9230353222, 0.0, 0.0, 0.0, 0.19441683625, 1.08574325475, -10.0396854239
2.36121296883, 0.0, 0.891543848277, -14.0962142013, 0.52821558895, 0.6675975054, -9.942177903, 0.0, 0.0, 0.0, 0.4103690759, 1.0540383553, -10.0534441539
2.4114408493, 0.0, 0.894203500288, -14.0871641394, 0.48394837085, 0.56889357315, -9.822536773, 0.0, 0.0, 0.0, 0.29371897415, 1.05344014965, -10.111470102
2.4616458416, 0.0, 0.912541025421, -14.0979913842, 0.4163511324, 0.70528446135, -9.85783090635, 0.0, 0.0, 0.0, 0.30089744195, 1.03190474625, -10.1395857675
2.51192092896, 0.0, 0.89970620522, -14.0949363855, 0.6125625856, 0.7369893608, -10.0115697584, 0.0, 0.0, 0.0, 0.50668018555, 0.95892365695, -9.95832945555
2.56213188171, 0.0, 0.884427335714, -14.0716686434, 0.4869393991, 0.64785671895, -9.85783090635, 0.0, 0.0, 0.0, 0.2177468566, 1.07138631915, -10.024132077
2.61239385605, 0.0, 0.911429784704, -14.0716988314, 0.4845465765, 0.69690958225, -9.8608219346, 0.0, 0.0, 0.0, 0.2727817764, 1.05822579485, -10.0642118556
2.66311192513, 0.0, 0.919664599972, -14.0642468166, 0.59401821045, 0.6747759732, -9.84108114815, 0.0, 0.0, 0.0, 0.3756731482, 1.10249301295, -10.1138629246
2.71337485313, 0.0, 0.902732325277, -14.0634594524, 0.430708068, 0.68255264665, -9.8536434668, 0.0, 0.0, 0.0, 0.28295127245, 0.92542414055, -10.0905329042
2.76371979713, 0.0, 0.882514011673, -14.0688323308, 0.4259224228, 0.6305087551, -9.8428757651, 0.0, 0.0, 0.0, 0.3158525832, 0.92183490665, -10.0707921177
2.81414294243, 0.0, 0.924665449324, -14.0796152993, 0.4438685923, 0.7214360139, -9.86500937415, 0.0, 0.0, 0.0, 0.33798619225, 1.0504491214, -10.1036934285
2.8643488884, 0.0, 0.923854085791, -14.0801641143, 0.44087756405, 0.75673014725, -9.92961558435, 0.0, 0.0, 0.0, 0.29850461935, 1.01156575415, -10.000203851
2.91456198692, 0.0, 0.911374449851, -14.0684707503, 0.42532421715, 0.6376872229, -9.8787681041, 0.0, 0.0, 0.0, 0.311066938, 1.1114660977, -10.0223374601
2.96499896049, 0.0, 0.900675380894, -14.0712705126, 0.45882373355, 0.56051869405, -9.8835537493, 0.0, 0.0, 0.0, 0.24227328825, 1.0456634762, -10.0432746578
3.01530194283, 0.0, 0.897204536188, -14.0628182893, 0.39302111205, 0.5718846014, -9.83629550295, 0.0, 0.0, 0.0, 0.29730820805, 1.10129660165, -10.0151589923
3.06570291519, 0.0, 0.904463374098, -14.0676438541, 0.46959143525, 0.68135623535, -9.8548398781, 0.0, 0.0, 0.0, 0.22432711875, 0.9954142016, -9.9984092341
3.11590695381, 0.0, 0.894324742156, -14.0681626331, 0.4019941968, 0.6915257314, -9.8859465719, 0.0, 0.0, 0.0, 0.2213360905, 1.00079805245, -10.0528459482
3.16614198685, 0.0, 0.879974460226, -14.0575110435, 0.4103690759, 0.67776700145, -9.85783090635, 0.0, 0.0, 0.0, 0.23150558655, 1.01994063325, -10.0486585087
3.21647500992, 0.0, 0.909050948369, -14.065359778, 0.41455651545, 0.70528446135, -9.8847501606, 0.0, 0.0, 0.0, 0.24586252215, 1.0360921858, -10.0205428432
3.26665592194, 0.0, 0.894429060737, -14.0548790471, 0.4331008906, 0.5850451257, -9.8033941922, 0.0, 0.0, 0.0, 0.2799602442, 1.0683952909, -10.0713903234
3.31688499451, 0.0, 0.904138535312, -14.070788197, 0.4701896409, 0.5575276658, -9.9038927414, 0.0, 0.0, 0.0, 0.25543381255, 1.11565353725, -10.0821580251
3.36706995964, 0.0, 0.887698813705, -14.0705711984, 0.52462635505, 0.6005984726, -9.8668039911, 0.0, 0.0, 0.0, 0.2919243572, 1.00797652025, -10.0313105448
3.41734194756, 0.0, 0.855896118335, -14.0540059354, 0.4331008906, 0.56650075055, -9.8644111685, 0.0, 0.0, 0.0, 0.27218357075, 1.00797652025, -9.9840522985
3.46771383286, 0.0, 0.881216755899, -14.1047792765, 0.4366901245, 0.6436692794, -9.87936630975, 0.0, 0.0, 0.0, 0.2201396792, 1.07677017, -10.1371929449
3.51786184311, 0.0, 0.896461779459, -14.0976698793, 0.4235296002, 0.58325050875, -9.9110712092, 0.0, 0.0, 0.0, 0.3876372612, 1.11086789205, -10.0989077833
3.56800103188, 0.0, 0.862645720412, -14.0684273213, 0.45643091095, 0.550349198, -9.85424167245, 0.0, 0.0, 0.0, 0.323031051, 1.04626168185, -10.0588280047
3.61815881729, 0.0, 0.857645127765, -14.0593351626, 0.4043870194, 0.5874379483, -9.84586679335, 0.0, 0.0, 0.0, 0.3493520996, 1.0540383553, -10.0283195166
3.6683409214, 0.0, 0.855739963414, -14.0589355985, 0.4007977855, 0.5599204884, -9.8261260069, 0.0, 0.0, 0.0, 0.44566320925, 1.09052889995, -10.0624172386
3.71857786179, 0.0, 0.836729580307, -14.0540875303, 0.4558327053, 0.55692946015, -9.82433138995, 0.0, 0.0, 0.0, 0.28654050635, 0.95772724565, -10.04985492
3.76883292198, 0.0, 0.833814599067, -14.095928953, 0.36550365215, 0.6723831506, -9.9314102013, 0.0, 0.0, 0.0, 0.394815729, 1.0504491214, -10.1958170986
3.81916189194, 0.0, 0.87492577816, -14.1173818496, 0.5575276658, 0.6628118602, -9.9038927414, 0.0, 0.0, 0.0, 0.34636107135, 1.160518961, -10.1156575415
3.86976885796, 0.0, 0.854774114837, -14.1140252726, 0.4295116567, 0.5431707302, -9.93799046345, 0.0, 0.0, 0.0, 0.25902304645, 1.0061819033, -10.0809616138
3.91995000839, 0.0, 0.837919780915, -14.1216677011, 0.55453663755, 0.55094740365, -9.89013401145, 0.0, 0.0, 0.0, 0.38225341035, 1.1042876299, -10.1090772793
3.97016191483, 0.0, 0.842979194557, -14.093000649, 0.44207397535, 0.62991054945, -9.85184884985, 0.0, 0.0, 0.0, 0.26261228035, 0.92063849535, -10.0366943957
4.02033281326, 0.0, 0.85914701395, -14.1145874883, 0.4773681087, 0.72801627605, -9.9625168951, 0.0, 0.0, 0.0, 0.2979064137, 1.0600204118, -10.1024970172
4.07056093216, 0.0, 0.851147885281, -14.0751246618, 0.43010986235, 0.5970092387, -9.83270626905, 0.0, 0.0, 0.0, 0.25423740125, 1.01754781065, -10.1084790737
4.12083792686, 0.0, 0.860803125292, -14.0633480101, 0.4402793584, 0.58444692005, -9.9003035075, 0.0, 0.0, 0.0, 0.29371897415, 1.0444670649, -9.9876415324
4.17111182213, 0.0, 0.845543216515, -14.0661594858, 0.49351966125, 0.5718846014, -9.8416793538, 0.0, 0.0, 0.0, 0.35473595045, 1.0037890807, -10.0713903234
4.22140693665, 0.0, 0.858965688031, -14.0726842157, 0.5431707302, 0.63828542855, -9.82911703515, 0.0, 0.0, 0.0, 0.3122633493, 0.97208418125, -10.0707921177
4.2721619606, 0.0, 0.855635411931, -14.0237415828, 0.6137589969, 0.63828542855, -9.84586679335, 0.0, 0.0, 0.0, 0.23748764305, 0.8961120637, -9.99781102845
4.32331585884, 0.0782917545331, 0.848004725391, -14.0446973045, 0.5467599641, 0.4031906081, -9.87697348715, 0.0, 0.0, 0.0, 0.4498506488, 1.1258230333, -10.0432746578
4.37358999252, 0.0911316235971, 0.884086160534, -14.0578766688, 0.4677968183, 0.75912296985, -9.7974121357, 0.0, 0.0, 0.0, 0.43250268495, 1.0779665813, -9.97388280245
4.423817873, 0.107855598136, 0.868409115849, -14.1137045216, 0.61555361385, 0.5192425042, -9.9768738307, 0.0, 0.0, 0.0, 0.4295116567, 1.0540383553, -10.1671032274
4.47446298599, 0.12945915352, 0.875963577571, -14.0798540796, 0.57248280705, 0.56171510535, -9.8656075798, 0.0, 0.0, 0.0, 0.430708068, 1.04985091575, -10.024132077
4.52467989922, 0.146765332952, 0.857556441435, -14.0473772663, 0.57008998445, 0.62991054945, -9.7830552001, 0.0, 0.0, 0.0, 0.41694933805, 1.0001998468, -9.978070242
4.57491993904, 0.151842742963, 0.851396127517, -14.0608646211, 0.58444692005, 0.646062102, -9.90090171315, 0.0, 0.0, 0.0, 0.430708068, 1.0504491214, -10.0941221381
4.62523889542, 0.150894799017, 0.838100736143, -14.0399040165, 0.52462635505, 0.5706881901, -9.76211800235, 0.0, 0.0, 0.0, 0.430708068, 0.9978070242, -10.0785687912
4.67558097839, 0.152469797621, 0.834456027885, -14.0438670587, 0.55812587145, 0.58564333135, -9.822536773, 0.0, 0.0, 0.0, 0.4199403663, 0.9607182739, -10.04985492
4.72577285767, 0.155857612271, 0.839882236266, -14.0591002586, 0.6652046828, 0.63469619465, -9.88295554365, 0.0, 0.0, 0.0, 0.44087756405, 1.10129660165, -10.0803634081
4.77604699135, 0.148781713803, 0.823625347168, -14.0578611869, 0.55214381495, 0.5335994398, -9.870393225, 0.0, 0.0, 0.0, 0.4845465765, 1.0755737587, -10.0713903234
4.82633781433, 0.173258742731, 0.848744042538, -14.0643829592, 0.65264236415, 0.66341006585, -9.91286582615, 0.0, 0.0, 0.0, 0.4331008906, 0.9846464999, -10.0331051618
4.87654495239, 0.21656129667, 0.844797064881, -14.0655758223, 0.538385085, 0.5084748025, -9.8117690713, 0.0, 0.0, 0.0, 0.58325050875, 1.1162517429, -10.0594262104
4.92676782608, 0.302147432364, 0.82642763495, -14.0962066355, 0.6173482308, 0.6915257314, -9.86979501935, 0.0, 0.0, 0.0, 0.4857429878, 0.95054877785, -10.1898350421
4.97694897652, 0.335348987601, 0.847015038891, -14.1094359217, 0.67417776755, 0.64426748505, -9.9314102013, 0.0, 0.0, 0.0, 0.49112683865, 1.0085747259, -10.037890807
5.02724599838, 0.358172656998, 0.836738370457, -14.0885252287, 0.63110696075, 0.58085768615, -9.91047300355, 0.0, 0.0, 0.0, 0.4977071008, 0.97328059255, -10.0522477426
5.07770490646, 0.348695262039, 0.834353561528, -14.0628441591, 0.60717873475, 0.5814558918, -9.83629550295, 0.0, 0.0, 0.0, 0.4007977855, 1.02233345585, -10.0630154443
5.12805294991, 0.347966900018, 0.825981218582, -14.0463617907, 0.6496513359, 0.57607204095, -9.85304526115, 0.0, 0.0, 0.0, 0.42532421715, 1.02352986715, -9.9948200002
5.17962479591, 0.382377480447, 0.833984635432, -14.0429521219, 0.658026215, 0.64905313025, -9.88056272105, 0.0, 0.0, 0.0, 0.50668018555, 0.93978107615, -9.98225768155
5.22996091843, 0.387876268666, 0.825669700604, -14.0377608741, 0.69690958225, 0.6005984726, -9.8680004024, 0.0, 0.0, 0.0, 0.44685962055, 0.96251289085, -10.0199446375
5.28018093109, 0.399975437334, 0.814057519531, -14.0455394288, 0.60478591215, 0.5587240771, -9.8237331843, 0.0, 0.0, 0.0, 0.5395814963, 0.96849494735, -10.0438728635
5.33044981956, 0.431975690861, 0.826876925035, -14.0529803968, 0.75912296985, 0.5419743189, -9.8488578216, 0.0, 0.0, 0.0, 0.5838487144, 1.04506527055, -10.0935239324
5.38098287582, 0.41983257019, 0.804253417797, -14.0532216974, 0.6807580297, 0.5072783912, -9.85184884985, 0.0, 0.0, 0.0, 0.54376893585, 0.99361958465, -10.048060303
5.43155002594, 0.426538193325, 0.798119012871, -14.0418254231, 0.6831508523, 0.67417776755, -9.8297152408, 0.0, 0.0, 0.0, 0.48155554825, 0.9643075078, -10.0612208274
5.48210692406, 0.425903627201, 0.808315622783, -14.0466414727, 0.71605216305, 0.60837514605, -9.87338425325, 0.0, 0.0, 0.0, 0.5312066172, 0.981057266, -10.0247302827
5.53270292282, 0.440696376043, 0.838186869574, -14.0451337953, 0.6544369811, 0.62392849295, -9.8680004024, 0.0, 0.0, 0.0, 0.538385085, 0.9714859756, -10.0199446375
5.58289599419, 0.442414254501, 0.823094276573, -14.0328530594, 0.66580288845, 0.64905313025, -9.83031344645, 0.0, 0.0, 0.0, 0.52462635505, 0.97567341515, -10.0014002623
5.63307785988, 0.440917004988, 0.793929794591, -14.0317010861, 0.63230337205, 0.62991054945, -9.8680004024, 0.0, 0.0, 0.0, 0.54257252455, 0.8697910151, -9.9960164115
5.68331599236, 0.458454953285, 0.818269241583, -14.0300196054, 0.68733829185, 0.54496534715, -9.84825961595, 0.0, 0.0, 0.0, 0.55334022625, 1.0935199282, -10.0354979844
5.73355984688, 0.459373072677, 0.815071853589, -14.0345970455, 0.6807580297, 0.5706881901, -9.8572327007, 0.0, 0.0, 0.0, 0.5395814963, 1.01276216545, -10.0031948793
5.78373384476, 0.45050965394, 0.817740274704, -14.0444202045, 0.6783652071, 0.5838487144, -9.8632147572, 0.0, 0.0, 0.0, 0.5132604477, 1.0348957745, -10.0707921177
5.83403801918, 0.440515070086, 0.803633308923, -14.061167382, 0.6376872229, 0.6065805291, -9.86022372895, 0.0, 0.0, 0.0, 0.5563312545, 0.9200402897, -10.0648100613
5.88445997238, 0.465630821927, 0.78985310387, -14.0673227107, 0.7082754896, 0.4737788748, -9.8883393945, 0.0, 0.0, 0.0, 0.56410792795, 1.00079805245, -10.0103733471
5.934705019, 0.458144641759, 0.797984074984, -14.0683551984, 0.7250252478, 0.5228317381, -9.91166941485, 0.0, 0.0, 0.0, 0.4689932296, 1.04027962535, -10.0552387708
5.98502397537, 0.437255666926, 0.817350818146, -14.0566514377, 0.62392849295, 0.6364908116, -9.86859860805, 0.0, 0.0, 0.0, 0.51744788725, 1.0193424276, -10.0319087505
6.03537487984, 0.429747753406, 0.806982566856, -14.0405705307, 0.65503518675, 0.6005984726, -9.82792062385, 0.0, 0.0, 0.0, 0.53180482285, 1.0109675485, -10.0414800409
6.08560180664, 0.437103498752, 0.808947531754, -14.0371453694, 0.68015982405, 0.56171510535, -9.8452685877, 0.0, 0.0, 0.0, 0.5240281494, 1.03669039145, -10.0516495369
6.13585996628, 0.445306235132, 0.846950639108, -14.0472231991, 0.7010970218, 0.6376872229, -9.87577707585, 0.0, 0.0, 0.0, 0.55692946015, 1.0480562988, -10.0660064725
6.18612480164, 0.438804908851, 0.859886887093, -14.047251823, 0.64426748505, 0.65144595285, -9.89252683405, 0.0, 0.0, 0.0, 0.50787659685, 1.0660024683, -10.0145607866
6.23638701439, 0.422927674188, 0.859428762031, -14.0474762705, 0.681954441, 0.55812587145, -9.8440721764, 0.0, 0.0, 0.0, 0.47796631435, 1.004985492, -10.013962581
6.28670096397, 0.413367102355, 0.845912861936, -14.0353433099, 0.69571317095, 0.58803615395, -9.85902731765, 0.0, 0.0, 0.0, 0.49710889515, 1.04147603665, -9.9613204838
6.33688402176, 0.404194012586, 0.835679375122, -14.0423866324, 0.6209374647, 0.60957155735, -9.85783090635, 0.0, 0.0, 0.0, 0.454636294, 0.97686982645, -10.0205428432
6.38708591461, 0.409901225419, 0.826386293974, -14.0495984689, 0.65024954155, 0.5970092387, -9.8153583052, 0.0, 0.0, 0.0, 0.5527420206, 0.98763752815, -10.0899346985
6.43757796288, 0.402153899741, 0.834582456504, -14.0484331014, 0.6544369811, 0.66341006585, -9.858429112, 0.0, 0.0, 0.0, 0.46959143525, 0.97088776995, -9.99661461715
6.48781180382, 0.41758350186, 0.837469990269, -14.0612312003, 0.61196437995, 0.6915257314, -9.8775716928, 0.0, 0.0, 0.0, 0.5659025449, 1.00678010895, -10.037890807
6.53854799271, 0.426876238166, 0.846406105638, -14.0540426471, 0.6652046828, 0.5563312545, -9.83150985775, 0.0, 0.0, 0.0, 0.52821558895, 1.0671988796, -10.037890807
6.5888428688, 0.420862875185, 0.83500057262, -14.0617310405, 0.63828542855, 0.5790630692, -9.87099143065, 0.0, 0.0, 0.0, 0.5132604477, 0.9978070242, -10.0307123392
6.63906288147, 0.415715459722, 0.835945853769, -14.0482293506, 0.69092752575, 0.66221365455, -9.84586679335, 0.0, 0.0, 0.0, 0.48275195955, 1.0109675485, -10.037890807
6.68931698799, 0.419930009103, 0.840685603847, -14.0505913525, 0.6364908116, 0.56650075055, -9.8656075798, 0.0, 0.0, 0.0, 0.51864429855, 1.00917293155, -10.0456674804
6.73955202103, 0.427547601359, 0.847006700539, -14.0599680482, 0.6687939167, 0.60239308955, -9.88774118885, 0.0, 0.0, 0.0, 0.50907300815, 0.97567341515, -10.0474620974
6.78984999657, 0.430810045626, 0.844612578594, -14.0518899807, 0.59162538785, 0.66460647715, -9.86261655155, 0.0, 0.0, 0.0, 0.53898329065, 0.993021379, -10.0372926013
6.8401927948, 0.428946871462, 0.833016467879, -14.0590139965, 0.658026215, 0.57128639575, -9.88056272105, 0.0, 0.0, 0.0, 0.51026941945, 0.9966106129, -10.0247302827
6.89039087296, 0.416048885973, 0.839694972681, -14.0641040966, 0.6448656907, 0.63708901725, -9.89252683405, 0.0, 0.0, 0.0, 0.45762732225, 0.9762716208, -10.03609619
6.94071602821, 0.406043823424, 0.844997122734, -14.0532206349, 0.6233302873, 0.586241537, -9.8572327007, 0.0, 0.0, 0.0, 0.526420972, 1.03908321405, -9.9996056454
6.9910569191, 0.345185981086, 0.870203758983, -14.0429032192, 0.55573304885, 0.55334022625, -9.8261260069, 0.0, 0.0, 0.0, 0.47796631435, 1.0468598875, -9.9756774194
7.04139590263, 0.337140091904, 0.856101400809, -14.0510608587, 0.65623159805, 0.5670989562, -9.89133042275, 0.0, 0.0, 0.0, 0.454636294, 0.96969135865, -10.0073823188
7.09160399437, 0.322429007247, 0.852521498203, -14.0494680906, 0.51864429855, 0.60239308955, -9.85543808375, 0.0, 0.0, 0.0, 0.41096728155, 0.9762716208, -10.0683992951
7.14185786247, 0.342251199265, 0.859551622508, -14.0506457313, 0.65623159805, 0.57966127485, -9.87338425325, 0.0, 0.0, 0.0, 0.51026941945, 0.9858429112, -10.060024416
7.19213485718, 0.295809305476, 0.820631682001, -14.0638980252, 0.5659025449, 0.62632131555, -9.90568735835, 0.0, 0.0, 0.0, 0.33678978095, 0.89551385805, -10.0660064725
7.24240088463, 0.303063026842, 0.818767954869, -14.0576877442, 0.5958128274, 0.5706881901, -9.82552780125, 0.0, 0.0, 0.0, 0.4354937132, 0.94456672135, -10.0432746578
7.2926428318, 0.315863828674, 0.823791921314, -14.0977377969, 0.51864429855, 0.68015982405, -10.1013006059, 0.0, 0.0, 0.0, 0.42532421715, 0.9750752095, -10.0193464318
7.34285593033, 0.299331852309, 0.838710638369, -14.0795598553, 0.57248280705, 0.7561319416, -9.9074819753, 0.0, 0.0, 0.0, 0.43010986235, 0.96012006825, -10.0660064725
7.39300680161, 0.297374349826, 0.842713738129, -14.0819819402, 0.5838487144, 0.5706881901, -9.89970530185, 0.0, 0.0, 0.0, 0.39182470075, 0.99720881855, -10.0528459482
7.44317388535, 0.285242097334, 0.84723974769, -14.0907979794, 0.526420972, 0.63230337205, -9.92602635045, 0.0, 0.0, 0.0, 0.43609191885, 1.01874422195, -10.0570333878
7.49350595474, 0.29426862218, 0.84320460314, -14.0906960917, 0.57487562965, 0.6281159325, -9.89013401145, 0.0, 0.0, 0.0, 0.5611168997, 1.06779708525, -10.0223374601
7.54380488396, 0.292840475654, 0.852623078469, -14.0394902659, 0.5335994398, 0.5647061336, -9.76092159105, 0.0, 0.0, 0.0, 0.4677968183, 1.0839486378, -9.98943614935
7.59424901009, 0.267165358242, 0.840243646648, -14.0588563848, 0.538385085, 0.6089733517, -10.0091769358, 0.0, 0.0, 0.0, 0.25423740125, 0.9248259349, -10.0713903234
7.64479398727, 0.261191521799, 0.814853423605, -14.0501358369, 0.5599204884, 0.60717873475, -9.8368937086, 0.0, 0.0, 0.0, 0.38943187815, 0.9296115801, -10.2107722398
7.69497299194, 0.302333891341, 0.770583196417, -14.0485671305, 0.55094740365, 0.4319044793, -9.8081798374, 0.0, 0.0, 0.0, 0.5204389155, 0.92781696315, -10.1060862511
7.74526691437, 0.184603879118, 0.778295947701, -14.0520224316, 0.35353953915, 0.53898329065, -9.8117690713, 0.0, 0.0, 0.0, 0.20039889275, 1.016949605, -10.0713903234
7.79547190666, 0.17502746429, 0.772079017049, -14.0608323276, 0.514456859, 0.6113661743, -9.918249677, 0.0, 0.0, 0.0, 0.3134597606, 0.90029950325, -10.0594262104
7.84567594528, 0.148690428364, 0.796092896846, -14.0593341159, 0.32602207925, 0.5216353268, -9.8967142736, 0.0, 0.0, 0.0, 0.31166514365, 1.01635139935, -10.0654082669
7.89588284492, 0.165741712696, 0.799129190473, -14.0699930605, 0.4809573426, 0.5802594805, -9.88774118885, 0.0, 0.0, 0.0, 0.3529413335, 0.9415756931, -10.0468638917
7.94612693787, 0.181645325083, 0.78692953345, -14.0625766807, 0.5048855686, 0.5515456093, -9.8524470555, 0.0, 0.0, 0.0, 0.3337987527, 1.00199446375, -10.0695957064
7.99634194374, 0.189336731103, 0.821850432963, -14.0746389814, 0.48873401605, 0.66819571105, -9.8967142736, 0.0, 0.0, 0.0, 0.32721849055, 1.0719845248, -10.0486585087
8.04658198357, 0.176511926579, 0.818024254989, -14.0629894317, 0.4917250443, 0.60358950085, -9.8907322171, 0.0, 0.0, 0.0, 0.3314059301, 1.0217352502, -10.0187482262
8.09682583809, 0.142906422239, 0.847115253249, -14.0578747786, 0.4450650036, 0.5826523031, -9.8656075798, 0.0, 0.0, 0.0, 0.2572284295, 1.04626168185, -10.04985492
8.14704084396, 0.154630248417, 0.843572984003, -14.0653069902, 0.54376893585, 0.71365934045, -9.89133042275, 0.0, 0.0, 0.0, 0.32602207925, 0.92781696315, -10.0767741743
8.19731688499, 0.146130752345, 0.865144606447, -14.0773878106, 0.4486542375, 0.562313311, -9.8572327007, 0.0, 0.0, 0.0, 0.2931207685, 1.0875378717, -10.0755777629
8.24760293961, 0.124341965771, 0.872767552896, -14.0726761031, 0.4354937132, 0.62273208165, -9.87936630975, 0.0, 0.0, 0.0, 0.2656033086, 1.06779708525, -10.04985492
8.29785895348, 0.0623946617431, 0.861478823892, -14.0787573137, 0.4474578262, 0.6293123438, -9.86979501935, 0.0, 0.0, 0.0, 0.227318147, 0.9750752095, -10.1413803844
8.34805583954, 0.0579319782514, 0.878815502235, -14.1067404223, 0.38225341035, 0.6963113766, -9.9290173787, 0.0, 0.0, 0.0, 0.20159530405, 0.9822536773, -10.0295159279
8.39825987816, 0.0, 0.889405042748, -14.0869940931, 0.45403808835, 0.6496513359, -9.8524470555, 0.0, 0.0, 0.0, 0.2488535504, 1.1114660977, -10.04985492
8.44850683212, 0.0, 0.918837549746, -14.0939158747, 0.430708068, 0.6747759732, -9.9529456047, 0.0, 0.0, 0.0, 0.2895315346, 1.08693966605, -10.0594262104
8.49873685837, 0.0, 0.894481156621, -14.1041749629, 0.4127618985, 0.61196437995, -9.80279598655, 0.0, 0.0, 0.0, 0.0777667345, 1.02233345585, -10.1605229653
8.54898095131, 0.0, 0.930901983939, -14.086324507, 0.33080772445, 0.7393821834, -9.95234739905, 0.0, 0.0, 0.0, 0.30927232105, 1.1234302107, -10.0630154443
8.59930992126, 0.0, 0.956391042089, -14.0817760703, 0.5216353268, 0.69930240485, -9.9050891527, 0.0, 0.0, 0.0, 0.17886348935, 1.0899306943, -9.9924271776
8.64949703217, 0.0, 0.954842943691, -14.0490631432, 0.33678978095, 0.6065805291, -9.8596255233, 0.0, 0.0, 0.0, 0.2667997199, 1.14077817455, -10.0319087505
8.69970703125, 0.0, 0.935550294464, -14.063660296, 0.49232324995, 0.729810893, -9.9720881855, 0.0, 0.0, 0.0, 0.2476571391, 1.028913718, -9.97268639115
8.7499268055, 0.0, 0.949743501774, -14.0561682647, 0.3565305674, 0.82731841395, -9.89252683405, 0.0, 0.0, 0.0, 0.04007977855, 1.0205388389, -10.0187482262
8.80014896393, 0.0, 0.950385147058, -14.0773079656, 0.4486542375, 0.83449688175, -10.0037930849, 0.0, 0.0, 0.0, 0.28414768375, 0.9786644434, -9.98225768155
8.85042500496, 0.0, 0.944410605015, -14.1102017133, 0.42891345105, 0.7429714173, -10.037890807, 0.0, 0.0, 0.0, 0.1698904046, 1.0109675485, -10.0666046782
8.90066981316, 0.0, 0.918056063482, -14.091745158, 0.43489550755, 0.60119667825, -9.8751788702, 0.0, 0.0, 0.0, 0.26979074815, 1.07258273045, -10.0247302827
8.95094895363, 0.0, 0.952183288842, -14.0922751907, 0.36909288605, 0.6771687958, -9.8452685877, 0.0, 0.0, 0.0, 0.3314059301, 1.088734283, -10.0803634081
9.00200295448, 0.0, 0.926890772835, -14.0773862012, 0.4630111731, 0.57008998445, -9.8201439504, 0.0, 0.0, 0.0, 0.43010986235, 1.06660067395, -10.0229356657
9.05215287209, 0.0, 0.910206754487, -14.0786929424, 0.30448667585, 0.646062102, -9.8787681041, 0.0, 0.0, 0.0, 0.33320054705, 1.040877831, -10.0474620974
9.10235595703, 0.0, 0.924437956368, -14.0617769974, 0.36550365215, 0.6915257314, -9.87338425325, 0.0, 0.0, 0.0, 0.38943187815, 1.1353943237, -10.012167964
9.15260601044, 0.0, 0.909241312435, -14.0793565132, 0.47676990305, 0.5934200048, -9.8811609267, 0.0, 0.0, 0.0, 0.2177468566, 1.0336993632, -10.0337033674
9.20300388336, 0.0, 0.894186549759, -14.0557016715, 0.41096728155, 0.5946164161, -9.8404829425, 0.0, 0.0, 0.0, 0.31764720015, 1.03190474625, -10.0277213109
9.25350284576, 0.0, 0.893725473875, -14.0768609236, 0.490528633, 0.67896341275, -9.9361958465, 0.0, 0.0, 0.0, 0.2667997199, 1.01994063325, -10.0438728635
9.3037109375, 0.0, 0.905652309755, -14.0961928975, 0.44327038665, 0.67537417885, -9.9218389109, 0.0, 0.0, 0.0, 0.3816552047, 1.0420742423, -10.0450692748
9.35392689705, 0.0, 0.887052410303, -14.0998613914, 0.5120640364, 0.7082754896, -9.9074819753, 0.0, 0.0, 0.0, 0.299102825, 1.0121639598, -10.0941221381
9.40411281586, 0.0, 0.854398420956, -14.0779568059, 0.4570291166, 0.5300102059, -9.87577707585, 0.0, 0.0, 0.0, 0.27696921595, 0.92542414055, -10.0462656861
9.45432901382, 0.0, 0.873632172627, -14.0917882468, 0.43130627365, 0.634097989, -9.86022372895, 0.0, 0.0, 0.0, 0.36311082955, 1.1509476706, -10.0773723799
9.50452899933, 0.0, 0.834281600862, -14.0848214544, 0.5718846014, 0.58205409745, -9.9290173787, 0.0, 0.0, 0.0, 0.4570291166, 0.9906285564, -10.0869436703
9.55468583107, 0.0, 0.825504296093, -14.0780719766, 0.55214381495, 0.6209374647, -9.80399239785, 0.0, 0.0, 0.0, 0.4761716974, 0.9631110965, -10.0959167551
9.60490202904, 0.0, 0.82422564719, -14.0714179083, 0.418743955, 0.58683974265, -9.89491965665, 0.0, 0.0, 0.0, 0.3098705267, 0.95054877785, -9.96072227815
9.65516495705, 0.0, 0.838296654553, -14.0866678938, 0.51505506465, 0.6711867393, -9.90449094705, 0.0, 0.0, 0.0, 0.42053857195, 0.98165547165, -10.0809616138
9.70541000366, 0.0, 0.828450621733, -14.0851796955, 0.57008998445, 0.62033925905, -9.8572327007, 0.0, 0.0, 0.0, 0.3876372612, 1.04267244795, -10.1030952228
9.75568985939, 0.0, 0.809329066606, -14.047650497, 0.52462635505, 0.4007977855, -9.86022372895, 0.0, 0.0, 0.0, 0.2715853651, 1.08454684345, -9.8428757651
9.80611395836, 0.0, 0.812279649527, -14.0812417286, 0.32721849055, 0.69332034835, -9.9445707256, 0.0, 0.0, 0.0, 0.2715853651, 0.9080761767, -10.012167964
9.85632300377, 0.0, 0.804316735702, -14.0759919174, 0.51266224205, 0.67417776755, -9.8093762487, 0.0, 0.0, 0.0, 0.43968115275, 1.01754781065, -10.0516495369
9.90654683113, 0.0, 0.78802395086, -14.0757999078, 0.669990328, 0.51864429855, -9.86261655155, 0.0, 0.0, 0.0, 0.346959277, 0.94456672135, -10.0468638917
9.95673894882, 0.0, 0.764835851917, -14.0674747326, 0.4977071008, 0.4091726646, -9.8620183459, 0.0, 0.0, 0.0, 0.3182454058, 0.94217389875, -10.0390872183
10.0070719719, 0.0, 0.772522906876, -14.0781439806, 0.5575276658, 0.56769716185, -9.9445707256, 0.0, 0.0, 0.0, 0.31884361145, 0.96490571345, -10.0331051618
10.0574200153, 0.0, 0.81257137159, -14.082153822, 0.52103712115, 0.6137589969, -9.89013401145, 0.0, 0.0, 0.0, 0.5443671415, 1.0025926694, -10.0384890127
10.1076388359, 0.0, 0.793165871348, -14.0725677148, 0.4989035121, 0.4881358104, -9.8440721764, 0.0, 0.0, 0.0, 0.35892339, 0.9475577496, -10.0181500206
10.1578118801, 0.108322568703, 0.8011533622, -14.073329634, 0.5886343596, 0.5371886737, -9.81834933345, 0.0, 0.0, 0.0, 0.50189454035, 1.0755737587, -10.0959167551
10.2079808712, 0.125790824197, 0.811785746073, -14.0710560049, 0.53060841155, 0.5276173833, -9.79561751875, 0.0, 0.0, 0.0, 0.4654039957, 1.0624132344, -10.0905329042
10.2582368851, 0.120592013157, 0.832153022739, -14.0827359023, 0.47318066915, 0.6233302873, -9.8380901199, 0.0, 0.0, 0.0, 0.43250268495, 1.08693966605, -10.1330055054
10.3084638119, 0.320126364199, 0.83065502628, -14.0771456051, 0.70049881615, 0.65742800935, -9.882357338, 0.0, 0.0, 0.0, 0.5168496816, 1.02472627845, -10.0319087505
10.3586518764, 0.340122980806, 0.829951430563, -14.0629387887, 0.5754738353, 0.57966127485, -9.8297152408, 0.0, 0.0, 0.0, 0.5168496816, 1.07018990785, -10.0432746578
10.4088749886, 0.376373458738, 0.835674587805, -14.0507483213, 0.6687939167, 0.62033925905, -9.82672421255, 0.0, 0.0, 0.0, 0.53778687935, 0.9882357338, -10.0576315934
10.4592328072, 0.380089981816, 0.816430153355, -14.0551565166, 0.622133876, 0.48753760475, -9.88415195495, 0.0, 0.0, 0.0, 0.526420972, 1.0540383553, -9.97388280245
10.5094428062, 0.416833438249, 0.785491914709, -14.0591144803, 0.72083780825, 0.48155554825, -9.86620578545, 0.0, 0.0, 0.0, 0.46360937875, 0.9475577496, -10.048060303
10.5596208572, 0.426163412999, 0.813892834642, -14.0674522657, 0.71844498565, 0.58564333135, -9.89372324535, 0.0, 0.0, 0.0, 0.5180460929, 1.07018990785, -10.0067841132
10.6098589897, 0.43610751631, 0.829005055369, -14.0628364856, 0.6652046828, 0.6448656907, -9.89252683405, 0.0, 0.0, 0.0, 0.51266224205, 0.99960164115, -9.99302538325
10.6601519585, 0.433980324663, 0.824270597319, -14.0469627314, 0.646062102, 0.69690958225, -9.8751788702, 0.0, 0.0, 0.0, 0.50069812905, 0.97328059255, -9.98823973805
10.7105579376, 0.445447379686, 0.814108430269, -14.0287522788, 0.5838487144, 0.5563312545, -9.8189475391, 0.0, 0.0, 0.0, 0.63589260595, 1.0241280728, -10.0313105448
10.7607629299, 0.473862867743, 0.820612085407, -14.0398873485, 0.6879364975, 0.63469619465, -9.83150985775, 0.0, 0.0, 0.0, 0.60478591215, 0.9918249677, -10.0576315934
10.8111188412, 0.499708077392, 0.831869279215, -14.0512399469, 0.73758756645, 0.71844498565, -9.85065243855, 0.0, 0.0, 0.0, 0.60957155735, 0.9631110965, -10.0313105448
10.8615529537, 0.48792628907, 0.829874820395, -14.0566660079, 0.6951149653, 0.54616175845, -9.8620183459, 0.0, 0.0, 0.0, 0.5850451257, 1.04865450445, -10.0301141335
10.9117569923, 0.488650464906, 0.855027532627, -14.0834261881, 0.65982083195, 0.61435720255, -9.85783090635, 0.0, 0.0, 0.0, 0.5850451257, 1.04147603665, -10.1324072997
10.9622268677, 0.474773976529, 0.849016902813, -14.070689012, 0.6723831506, 0.63469619465, -9.858429112, 0.0, 0.0, 0.0, 0.51744788725, 0.9906285564, -10.0325069561
11.0123679638, 0.499615255298, 0.833649579774, -14.0800734158, 0.73758756645, 0.61316079125, -9.9170532657, 0.0, 0.0, 0.0, 0.58325050875, 0.93738825355, -10.085747259
11.0626158714, 0.501492557493, 0.859466890695, -14.0603780933, 0.7154539574, 0.6771687958, -9.87458066455, 0.0, 0.0, 0.0, 0.6185446421, 1.12761765025, -9.99182897195
11.112888813, 0.517845337112, 0.87288651891, -14.0630878339, 0.71964139695, 0.64905313025, -9.85783090635, 0.0, 0.0, 0.0, 0.58803615395, 1.0671988796, -10.0307123392
11.1631348133, 0.501038894339, 0.887191653401, -14.0492601052, 0.66221365455, 0.61675002515, -9.858429112, 0.0, 0.0, 0.0, 0.5539384319, 1.0384850084, -10.0199446375
11.213411808, 0.523448065195, 0.862116025933, -14.0589766072, 0.7812565789, 0.6951149653, -9.8680004024, 0.0, 0.0, 0.0, 0.6269195212, 0.99601240725, -10.0947203437
11.2637598515, 0.530797613033, 0.84874777796, -14.0381573407, 0.71605216305, 0.6029912952, -9.83868832555, 0.0, 0.0, 0.0, 0.57248280705, 0.9643075078, -9.96550792335
11.3140499592, 0.534521709573, 0.823049714087, -14.029542625, 0.76271220375, 0.5730810127, -9.87099143065, 0.0, 0.0, 0.0, 0.5599204884, 0.93379901965, -10.0301141335
11.3643119335, 0.529484302772, 0.804573674759, -14.0327744934, 0.7166503687, 0.56171510535, -9.8201439504, 0.0, 0.0, 0.0, 0.60598232345, 0.98883393945, -10.0713903234
11.4144480228, 0.544702903684, 0.815732453832, -14.0298304556, 0.7788637563, 0.6233302873, -9.8428757651, 0.0, 0.0, 0.0, 0.6149554082, 1.08335043215, -10.0672028838
11.4646499157, 0.532543230424, 0.800207984683, -14.0420553079, 0.75194450205, 0.5479563754, -9.89372324535, 0.0, 0.0, 0.0, 0.54257252455, 0.9786644434, -10.0283195166
11.5148258209, 0.510635354365, 0.837950042344, -14.0583233864, 0.66341006585, 0.6376872229, -9.88295554365, 0.0, 0.0, 0.0, 0.50787659685, 1.0612168231, -10.0689975008
11.5650060177, 0.539485131524, 0.798636629731, -14.0322870427, 0.7573283529, 0.54735816975, -9.8069834261, 0.0, 0.0, 0.0, 0.6412764568, 0.9343972253, -9.9589276612
11.6152968407, 0.561094345649, 0.80036903819, -14.0351086727, 0.81415788965, 0.5419743189, -9.8309116521, 0.0, 0.0, 0.0, 0.63469619465, 1.01635139935, -9.99302538325
11.6657140255, 0.543388498198, 0.803506280346, -14.02709051, 0.7645068207, 0.622133876, -9.84706320465, 0.0, 0.0, 0.0, 0.5778666579, 1.0181460163, -10.04985492
11.715929985, 0.559413782794, 0.800038362663, -14.0316443524, 0.76031938115, 0.53180482285, -9.8787681041, 0.0, 0.0, 0.0, 0.59162538785, 1.02233345585, -10.0277213109
11.7661058903, 0.544329870345, 0.785637822031, -14.0494523162, 0.7034898444, 0.5000999234, -9.9122676205, 0.0, 0.0, 0.0, 0.6568298037, 1.0013962581, -10.0325069561
11.8162789345, 0.526779682536, 0.814503620669, -14.0740299468, 0.7585247642, 0.62991054945, -9.88893760015, 0.0, 0.0, 0.0, 0.59282179915, 0.9798608547, -10.0689975008
11.8664138317, 0.53655721756, 0.822549659879, -14.0594049005, 0.7680960546, 0.5754738353, -9.8979106849, 0.0, 0.0, 0.0, 0.5096712138, 0.99122676205, -9.9696953629
11.9167330265, 0.52816762205, 0.815758027828, -14.0618169393, 0.6987041992, 0.62512490425, -9.89372324535, 0.0, 0.0, 0.0, 0.5754738353, 0.98763752815, -10.0546405652
11.9668979645, 0.524402554042, 0.790488208886, -14.0669583049, 0.8051848049, 0.5132604477, -9.92841917305, 0.0, 0.0, 0.0, 0.5108676251, 0.91824567275, -10.0055877019
12.0171518326, 0.471451740905, 0.756161461669, -14.0373770156, 0.65742800935, 0.5563312545, -9.82433138995, 0.0, 0.0, 0.0, 0.39421752335, 0.885344362, -9.93021379
12.0675330162, 0.498497895244, 0.740902593292, -14.0444506478, 0.7477570625, 0.6245266986, -9.89013401145, 0.0, 0.0, 0.0, 0.58085768615, 0.81415788965, -9.9924271776
12.1177289486, 0.484162768725, 0.764969730242, -14.0304480404, 0.6927221427, 0.5874379483, -9.8452685877, 0.0, 0.0, 0.0, 0.57726845225, 0.9846464999, -10.0468638917
12.1679968834, 0.518131066876, 0.772233894249, -14.0241106962, 0.73878397775, 0.6424728681, -9.8536434668, 0.0, 0.0, 0.0, 0.56171510535, 0.9284151688, -9.99781102845
12.2183887959, 0.50678211457, 0.764275102847, -14.035707075, 0.693918554, 0.5371886737, -9.8428757651, 0.0, 0.0, 0.0, 0.55094740365, 0.96969135865, -10.0630154443
12.2686159611, 0.482266848368, 0.75275154984, -14.0476094858, 0.6352944003, 0.5228317381, -9.8524470555, 0.0, 0.0, 0.0, 0.47916272565, 0.96849494735, -10.0929257268
12.3188660145, 0.4766110252, 0.738401101457, -14.0496359016, 0.705882667, 0.52941200025, -9.84945602725, 0.0, 0.0, 0.0, 0.5730810127, 0.93260260835, -10.0606226217
12.3690209389, 0.479016089903, 0.741244426663, -14.0653087371, 0.72442704215, 0.55932228275, -9.88654477755, 0.0, 0.0, 0.0, 0.5276173833, 0.99840522985, -10.0863454646
12.4194509983, 0.465185522476, 0.733971103224, -14.048350118, 0.7022934331, 0.6376872229, -9.834500886, 0.0, 0.0, 0.0, 0.47078784655, 0.9272187575, -9.92482993915
12.4697418213, 0.477611423211, 0.751200458608, -14.0480418261, 0.71365934045, 0.53778687935, -9.8081798374, 0.0, 0.0, 0.0, 0.56171510535, 0.9152546445, -10.107880868
12.519933939, 0.471477145424, 0.735289236911, -14.0423785504, 0.71485575175, 0.51026941945, -9.8285188295, 0.0, 0.0, 0.0, 0.49710889515, 0.90388873715, -9.98943614935
12.570168972, 0.469239957491, 0.730230633797, -14.0483858929, 0.69212393705, 0.5180460929, -9.834500886, 0.0, 0.0, 0.0, 0.59282179915, 0.9714859756, -10.0827562307
12.620390892, 0.482204322867, 0.76340413322, -14.0404574425, 0.70887369525, 0.5730810127, -9.87338425325, 0.0, 0.0, 0.0, 0.51266224205, 0.98644111685, -10.0181500206
12.6705479622, 0.490724300928, 0.776465129732, -14.0441395987, 0.71724857435, 0.63349978335, -9.8333044747, 0.0, 0.0, 0.0, 0.5335994398, 0.9320044027, -10.0133643753
12.7207958698, 0.469184112808, 0.755456525928, -14.0230326366, 0.70767728395, 0.5312066172, -9.8129654826, 0.0, 0.0, 0.0, 0.48035913695, 0.9798608547, -9.9960164115
12.7710428238, 0.46395475946, 0.740480626514, -14.0214378675, 0.83210405915, 0.53180482285, -9.76810005885, 0.0, 0.0, 0.0, 0.4414757697, 0.92662055185, -10.0630154443
12.8220009804, 0.470808479773, 0.772490082144, -14.0626938616, 0.63948183985, 0.63708901725, -9.9134640318, 0.0, 0.0, 0.0, 0.5599204884, 0.97328059255, -10.0348997787
12.8729588985, 0.450942356866, 0.765988492858, -14.074601695, 0.69332034835, 0.55453663755, -9.94875816515, 0.0, 0.0, 0.0, 0.48035913695, 0.93140619705, -10.0648100613
12.9231388569, 0.440185318293, 0.76389753984, -14.0734072395, 0.62273208165, 0.54257252455, -9.88295554365, 0.0, 0.0, 0.0, 0.53180482285, 0.8937192411, -10.0432746578
12.9734778404, 0.429328690885, 0.791943255607, -14.0642671358, 0.6735795619, 0.6329015777, -9.86500937415, 0.0, 0.0, 0.0, 0.5048855686, 1.01754781065, -10.0875418759
13.0236849785, 0.462124937286, 0.788809168496, -14.0685763809, 0.73160550995, 0.5527420206, -9.92961558435, 0.0, 0.0, 0.0, 0.4965106895, 0.8781658942, -9.99422179455
13.0738990307, 0.448725391313, 0.791887057461, -14.0667414495, 0.6855436749, 0.51385865335, -9.85304526115, 0.0, 0.0, 0.0, 0.5012963347, 1.03908321405, -10.073783146
13.1241137981, 0.450459623608, 0.808719613979, -14.0618730993, 0.67537417885, 0.59282179915, -9.8799645154, 0.0, 0.0, 0.0, 0.50668018555, 0.99003035075, -10.0630154443
13.1743648052, 0.459266791331, 0.807845422057, -14.0556485463, 0.6867400862, 0.54975099235, -9.85783090635, 0.0, 0.0, 0.0, 0.5455635528, 1.0265208954, -10.0516495369
13.2246220112, 0.457143053618, 0.802090663047, -14.0468567127, 0.68015982405, 0.63948183985, -9.83509909165, 0.0, 0.0, 0.0, 0.54017970195, 1.00797652025, -10.0504531256
13.2748229504, 0.435266069821, 0.837100399725, -14.066079317, 0.60119667825, 0.6388836342, -9.9110712092, 0.0, 0.0, 0.0, 0.53180482285, 1.11445712595, -10.0695957064
13.325013876, 0.433677259712, 0.83786614455, -14.0723370252, 0.73758756645, 0.6448656907, -9.92243711655, 0.0, 0.0, 0.0, 0.48035913695, 0.9786644434, -10.0025966737
13.3752310276, 0.416760445599, 0.838498531227, -14.0926272987, 0.6616154489, 0.57487562965, -9.9098747979, 0.0, 0.0, 0.0, 0.4773681087, 1.00438728635, -10.1353983279
13.4254629612, 0.385151937914, 0.876871408593, -14.0887880839, 0.610169763, 0.753739119, -9.93081199565, 0.0, 0.0, 0.0, 0.3876372612, 1.0815558152, -10.0109715527
13.4756820202, 0.401998408574, 0.884993185785, -14.0984677288, 0.68973111445, 0.6795616184, -9.9326066126, 0.0, 0.0, 0.0, 0.514456859, 1.07377914175, -10.0558369765
13.5260109901, 0.405460251623, 0.897166273843, -14.1015574713, 0.5563312545, 0.7549355303, -9.94995457645, 0.0, 0.0, 0.0, 0.4917250443, 0.95413801175, -9.9314102013
13.5763008595, 0.376991673841, 0.910327353302, -14.0751463419, 0.7202396026, 0.69212393705, -9.9050891527, 0.0, 0.0, 0.0, 0.41694933805, 1.0552347666, -9.97627562505
13.6264958382, 0.35290348055, 0.88708588161, -14.0353031904, 0.5192425042, 0.5551348432, -9.80997445435, 0.0, 0.0, 0.0, 0.37507494255, 1.05344014965, -9.954142016
13.6767117977, 0.345846556901, 0.857057686648, -14.0541273673, 0.6293123438, 0.6544369811, -9.91286582615, 0.0, 0.0, 0.0, 0.41216369285, 0.84406817215, -10.0151589923
13.7269039154, 0.353222986727, 0.869460621568, -14.0526944113, 0.6664010941, 0.64785671895, -9.83031344645, 0.0, 0.0, 0.0, 0.4211367776, 1.0109675485, -10.04985492
13.7770450115, 0.354130701597, 0.854652040448, -14.0604786204, 0.63469619465, 0.61555361385, -9.90688376965, 0.0, 0.0, 0.0, 0.4498506488, 1.00079805245, -10.0229356657
13.8273079395, 0.349639003675, 0.875956961092, -14.0534967462, 0.58923256525, 0.6436692794, -9.8452685877, 0.0, 0.0, 0.0, 0.4893322217, 1.0827522265, -10.0343015731
13.8774588108, 0.35038207836, 0.880454487645, -14.0480813579, 0.65982083195, 0.56769716185, -9.84945602725, 0.0, 0.0, 0.0, 0.45403808835, 1.0863414604, -10.0695957064
13.927770853, 0.324355713105, 0.90149235518, -14.0370195985, 0.58683974265, 0.70648087265, -9.8404829425, 0.0, 0.0, 0.0, 0.4127618985, 1.0468598875, -10.0115697584
13.9788069725, 0.32666618777, 0.884707379072, -14.0333492233, 0.60239308955, 0.6388836342, -9.88893760015, 0.0, 0.0, 0.0, 0.47916272565, 0.99242317335, -10.0014002623
14.0290739536, 0.324256263303, 0.855753485948, -14.0485042847, 0.6233302873, 0.61794643645, -9.8811609267, 0.0, 0.0, 0.0, 0.3074777041, 1.0145567824, -10.0289177222
14.0794889927, 0.357436037501, 0.862720466701, -14.0411763125, 0.66341006585, 0.60598232345, -9.86979501935, 0.0, 0.0, 0.0, 0.4929214556, 1.04027962535, -10.0229356657
14.129860878, 0.372327479826, 0.841077573042, -14.0449823474, 0.658026215, 0.53539405675, -9.84586679335, 0.0, 0.0, 0.0, 0.44566320925, 0.9547362174, -10.0097751414
14.1800730228, 0.345588582668, 0.845717050389, -14.0430594518, 0.6029912952, 0.6317051664, -9.8309116521, 0.0, 0.0, 0.0, 0.40139599115, 1.040877831, -10.0372926013
14.2303478718, 0.365377151804, 0.846727680232, -14.0408320188, 0.68494546925, 0.62153567035, -9.8309116521, 0.0, 0.0, 0.0, 0.47676990305, 1.0588240005, -10.0701939121
14.2805500031, 0.332319853485, 0.799001901505, -14.0825467774, 0.6269195212, 0.61794643645, -9.89850889055, 0.0, 0.0, 0.0, 0.33798619225, 0.8362914987, -10.1186485698
14.3307929039, 0.34894558207, 0.82513313259, -14.1018305115, 0.75194450205, 0.6711867393, -9.97029356855, 0.0, 0.0, 0.0, 0.54257252455, 0.9176474671, -10.1401839732
14.3811519146, 0.279354577538, 0.836356132392, -14.1045217183, 0.5467599641, 0.61555361385, -9.95474022165, 0.0, 0.0, 0.0, 0.27577280465, 1.06660067395, -10.0037930849
14.4313700199, 0.300564406575, 0.796941450635, -14.0999906937, 0.5874379483, 0.4941178669, -9.90209812445, 0.0, 0.0, 0.0, 0.4259224228, 0.9738787982, -10.1330055054
14.4816808701, 0.272900095111, 0.803886437495, -14.0944122239, 0.4522434714, 0.6209374647, -9.86381296285, 0.0, 0.0, 0.0, 0.4019941968, 1.004985492, -10.1030952228
14.5321128368, 0.266623298167, 0.800266762521, -14.0803985826, 0.538385085, 0.4965106895, -9.80638522045, 0.0, 0.0, 0.0, 0.4630111731, 1.00678010895, -10.1294162714
14.58228302, 0.232939453813, 0.809480705662, -14.0570322656, 0.53060841155, 0.6137589969, -9.84586679335, 0.0, 0.0, 0.0, 0.3984049629, 0.9882357338, -9.97268639115
14.6331179142, 0.224445037557, 0.808691489045, -14.0548531726, 0.4414757697, 0.5802594805, -9.8237331843, 0.0, 0.0, 0.0, 0.4127618985, 1.0444670649, -10.0863454646
14.6833908558, 0.222408817461, 0.801923803452, -14.0583768806, 0.56051869405, 0.4989035121, -9.80997445435, 0.0, 0.0, 0.0, 0.36789647475, 0.98165547165, -10.0319087505
14.7337620258, 0.228137948124, 0.826267382425, -14.0833832387, 0.5240281494, 0.62153567035, -9.89731247925, 0.0, 0.0, 0.0, 0.3577269787, 1.0456634762, -10.1066844567
14.7841098309, 0.194540031975, 0.842254385182, -14.11818755, 0.39182470075, 0.6735795619, -9.91166941485, 0.0, 0.0, 0.0, 0.38344982165, 1.0301101293, -10.1533444974
14.8343839645, 0.111414688278, 0.847607485525, -14.1266810106, 0.48753760475, 0.6400800455, -9.9290173787, 0.0, 0.0, 0.0, 0.35832518435, 0.96131647955, -10.0905329042
14.8846390247, 0.116361338131, 0.82869699525, -14.1131368344, 0.55334022625, 0.51385865335, -9.8907322171, 0.0, 0.0, 0.0, 0.3816552047, 1.02233345585, -10.0504531256
14.9348409176, 0.109754684063, 0.871743816679, -14.0858022779, 0.502492746, 0.65024954155, -9.8847501606, 0.0, 0.0, 0.0, 0.3996013742, 1.0791629926, -10.0863454646
14.98503685, 0.104283786686, 0.84685589231, -14.104945145, 0.52701917765, 0.63110696075, -9.91286582615, 0.0, 0.0, 0.0, 0.40977087025, 0.9343972253, -10.0666046782
15.0352649689, 0.103075989331, 0.825533115421, -14.0882948848, 0.47318066915, 0.5778666579, -9.8392865312, 0.0, 0.0, 0.0, 0.37986058775, 0.99361958465, -10.0660064725
15.0854728222, 0.0931892510318, 0.853929590855, -14.0675570148, 0.5335994398, 0.72203421955, -9.8715896363, 0.0, 0.0, 0.0, 0.32004002275, 1.01036934285, -10.0031948793
15.1357200146, 0.11462834184, 0.856002051971, -14.0706271093, 0.43848474145, 0.67657059015, -9.89252683405, 0.0, 0.0, 0.0, 0.43848474145, 0.97567341515, -10.1365947392
15.1865358353, 0.114075262403, 0.842941598955, -14.0695211786, 0.53659046805, 0.5694917788, -9.8991070962, 0.0, 0.0, 0.0, 0.3314059301, 1.02352986715, -10.0672028838
15.2367539406, 0.113056896041, 0.838008004253, -14.0698412722, 0.51026941945, 0.6065805291, -9.82672421255, 0.0, 0.0, 0.0, 0.3972085516, 1.0636096457, -10.0929257268
15.287019968, 0.122857743683, 0.847010495829, -14.0750835386, 0.53180482285, 0.6041877065, -9.81236727695, 0.0, 0.0, 0.0, 0.3888336725, 1.02831551235, -10.0630154443
15.3371818066, 0.129429418008, 0.834279094545, -14.0710229832, 0.53898329065, 0.5958128274, -9.82074215605, 0.0, 0.0, 0.0, 0.39302111205, 0.9846464999, -10.0731849404
15.3873608112, 0.13521490793, 0.887294833805, -14.062472911, 0.53898329065, 0.57607204095, -9.81715292215, 0.0, 0.0, 0.0, 0.4797609313, 1.124626622, -10.0366943957
15.4375388622, 0.144294987035, 0.873764822062, -14.0646338595, 0.52941200025, 0.5706881901, -9.87458066455, 0.0, 0.0, 0.0, 0.4414757697, 1.02233345585, -10.013962581
15.4877328873, 0.140887795065, 0.852978992026, -14.0444684388, 0.5647061336, 0.55334022625, -9.85783090635, 0.0, 0.0, 0.0, 0.42173498325, 1.03549398015, -9.90209812445
15.5379238129, 0.173371803208, 0.856176747339, -14.0650049649, 0.5240281494, 0.48514478215, -9.8081798374, 0.0, 0.0, 0.0, 0.43010986235, 0.9343972253, -9.9505527821
15.5884978771, 0.159686158436, 0.832068523257, -14.0567666591, 0.61555361385, 0.6065805291, -9.86859860805, 0.0, 0.0, 0.0, 0.48155554825, 0.969093153, -10.0271231053
15.6387109756, 0.15881781001, 0.840605598984, -14.0348650875, 0.5467599641, 0.65982083195, -9.86859860805, 0.0, 0.0, 0.0, 0.40378881375, 0.9643075078, -9.95952586685
15.6889388561, 0.172427291776, 0.865830206246, -14.0545698477, 0.6448656907, 0.6400800455, -9.8033941922, 0.0, 0.0, 0.0, 0.53419764545, 1.08095760955, -10.0779705855
15.739125967, 0.158990947914, 0.846544758971, -14.0499583083, 0.60478591215, 0.610169763, -9.8285188295, 0.0, 0.0, 0.0, 0.36550365215, 0.93738825355, -10.0331051618
15.7893660069, 0.266013725058, 0.871381054661, -14.0841936243, 0.74356962295, 0.7704888772, -9.96909715725, 0.0, 0.0, 0.0, 0.56291151665, 0.98285188295, -10.085747259
15.8397569656, 0.270042721481, 0.866732537724, -14.0887695198, 0.57008998445, 0.69451675965, -9.8656075798, 0.0, 0.0, 0.0, 0.3960121403, 1.040877831, -10.1150593359
15.8900609016, 0.292691861082, 0.861458917192, -14.090287713, 0.4725824635, 0.53659046805, -9.9110712092, 0.0, 0.0, 0.0, 0.4725824635, 1.09052889995, -10.0055877019
15.9402940273, 0.295300042229, 0.862669261324, -14.0909127375, 0.54257252455, 0.5922235935, -9.87697348715, 0.0, 0.0, 0.0, 0.52223353245, 1.01994063325, -10.0672028838
15.9905698299, 0.300070581881, 0.904265334247, -14.1115511136, 0.57248280705, 0.76869426025, -9.9505527821, 0.0, 0.0, 0.0, 0.38703905555, 1.0911271056, -10.1180503641
16.0409429073, 0.326534199835, 0.905232553562, -14.0952849386, 0.60957155735, 0.6604190376, -9.89372324535, 0.0, 0.0, 0.0, 0.45403808835, 1.09411813385, -10.073783146
16.0911250114, 0.337435243851, 0.886436621097, -14.0854601643, 0.57966127485, 0.658026215, -9.83988473685, 0.0, 0.0, 0.0, 0.5096712138, 1.06061861745, -10.0564351822
16.141368866, 0.341437904093, 0.870317571684, -14.0675042733, 0.56530433925, 0.55094740365, -9.8309116521, 0.0, 0.0, 0.0, 0.5395814963, 1.11684994855, -10.0845508477
16.1916348934, 0.329560146308, 0.876945156922, -14.0593348459, 0.56769716185, 0.74237321165, -9.8237331843, 0.0, 0.0, 0.0, 0.43010986235, 0.9786644434, -10.0037930849
16.2418148518, 0.311550802861, 0.842551269889, -14.0342709798, 0.44327038665, 0.4857429878, -9.72502925205, 0.0, 0.0, 0.0, 0.4259224228, 1.05104732705, -10.0271231053
16.2920458317, 0.306911857955, 0.858394842557, -14.0514504833, 0.69930240485, 0.6568298037, -9.9469635482, 0.0, 0.0, 0.0, 0.382851616, 1.0660024683, -9.96670433465
16.3423008919, 0.338376389686, 0.870885118308, -14.0684088937, 0.574277424, 0.6532405698, -9.91645506005, 0.0, 0.0, 0.0, 0.4175475437, 1.0480562988, -10.0654082669
16.3925080299, 0.363078082348, 0.891143549697, -14.0912648293, 0.7142575461, 0.6951149653, -9.85902731765, 0.0, 0.0, 0.0, 0.5335994398, 1.13958176325, -10.1258270375
16.4427518845, 0.389744899861, 0.842935336322, -14.0825056874, 0.6640082715, 0.59162538785, -9.84586679335, 0.0, 0.0, 0.0, 0.45164526575, 0.9978070242, -10.0253284884
16.4929068089, 0.397703726129, 0.832938805335, -14.093817053, 0.71784678, 0.63708901725, -9.9074819753, 0.0, 0.0, 0.0, 0.4115654872, 0.96370930215, -10.1186485698
16.5431778431, 0.482728033502, 0.829476499301, -14.0712765995, 0.7932206919, 0.51146583075, -9.80758163175, 0.0, 0.0, 0.0, 0.693918554, 1.1222337994, -10.0887382872
16.5937469006, 0.464090639547, 0.821247064773, -14.057098901, 0.78065837325, 0.5455635528, -9.82193856735, 0.0, 0.0, 0.0, 0.59401821045, 1.052841944, -10.0743813517
16.643914938, 0.446914753307, 0.828141918207, -14.0346615351, 0.6807580297, 0.6448656907, -9.8632147572, 0.0, 0.0, 0.0, 0.46839502395, 1.06301144005, -9.9996056454
16.6941149235, 0.474322742272, 0.817689848661, -14.0465030482, 0.7956135145, 0.56171510535, -9.88415195495, 0.0, 0.0, 0.0, 0.550349198, 0.96251289085, -10.0492567143
16.7442758083, 0.459528465047, 0.791475686561, -14.0565564212, 0.6831508523, 0.5611168997, -9.81954574475, 0.0, 0.0, 0.0, 0.52462635505, 0.93020978575, -10.1581301426
16.7956929207, 0.475714949938, 0.792227479503, -14.0625418506, 0.73040909865, 0.586241537, -9.91645506005, 0.0, 0.0, 0.0, 0.5682953675, 1.0253244841, -10.0809616138
16.8459608555, 0.486221357609, 0.801390596925, -14.0667248144, 0.70169522745, 0.57846486355, -9.86022372895, 0.0, 0.0, 0.0, 0.60598232345, 1.07736837565, -10.1324072997
16.8962249756, 0.489984312359, 0.823758796527, -14.066680026, 0.7286144817, 0.6592226263, -9.906285564, 0.0, 0.0, 0.0, 0.62153567035, 1.03310115755, -10.0701939121
16.9466969967, 0.505860869955, 0.79983245493, -14.0655707099, 0.79980095405, 0.5910271822, -9.86142014025, 0.0, 0.0, 0.0, 0.6041877065, 1.05583297225, -10.1162557471
16.9971969128, 0.50420886958, 0.815803700015, -14.0675564327, 0.7334001269, 0.646062102, -9.9326066126, 0.0, 0.0, 0.0, 0.60358950085, 1.0923235169, -10.0881400816
17.0474019051, 0.515408542332, 0.797667615256, -14.0660148863, 0.6963113766, 0.64307107375, -9.8835537493, 0.0, 0.0, 0.0, 0.6436692794, 0.88953180155, -10.0869436703
17.0975768566, 0.509164451984, 0.821182521402, -14.0601947611, 0.7824529902, 0.66221365455, -9.86979501935, 0.0, 0.0, 0.0, 0.5156532703, 0.91346002755, -10.0366943957
17.1477839947, 0.507653783002, 0.809510679345, -14.0475404152, 0.75912296985, 0.59282179915, -9.83031344645, 0.0, 0.0, 0.0, 0.56291151665, 1.05224373835, -10.1024970172
17.1979758739, 0.518235440506, 0.808943497004, -14.0507573983, 0.7393821834, 0.57248280705, -9.8859465719, 0.0, 0.0, 0.0, 0.5766702466, 0.93978107615, -9.9960164115
17.2481739521, 0.529445224102, 0.811096219522, -14.0735573502, 0.7142575461, 0.4941178669, -9.9373922578, 0.0, 0.0, 0.0, 0.6795616184, 1.07018990785, -10.1330055054
17.2984008789, 0.536953253994, 0.740160444014, -14.0646631067, 0.59641103305, 0.46002014485, -9.8691968137, 0.0, 0.0, 0.0, 0.56650075055, 0.9463613383, -10.0887382872
17.3486938477, 0.561917352248, 0.711650065271, -14.0430735828, 0.77946196195, 0.502492746, -9.7052884656, 0.0, 0.0, 0.0, 0.7369893608, 0.777667345, -10.0295159279
17.3988568783, 0.511238281594, 0.732432204252, -14.0320101128, 0.7010970218, 0.5407779076, -9.82911703515, 0.0, 0.0, 0.0, 0.4761716974, 0.94217389875, -9.94995457645
17.4490380287, 0.515704483937, 0.734954854047, -14.0530447981, 0.60837514605, 0.4977071008, -9.8201439504, 0.0, 0.0, 0.0, 0.64905313025, 0.99601240725, -10.1102736906
17.4991738796, 0.528059116514, 0.751765395086, -14.0682530082, 0.75912296985, 0.4917250443, -9.846464999, 0.0, 0.0, 0.0, 0.6317051664, 1.00558369765, -10.0103733471
17.549407959, 0.618734236058, 0.731782219227, -14.0721330451, 0.8961120637, 0.6077769404, -9.70110102605, 0.0, 0.0, 0.0, 0.67537417885, 1.10967148075, -10.0917293155
17.5996568203, 0.576294204567, 0.735278132007, -14.0588050965, 0.70408805005, 0.502492746, -9.834500886, 0.0, 0.0, 0.0, 0.58444692005, 1.00079805245, -10.0845508477
17.6498999596, 0.588423366895, 0.773660357744, -14.0394010143, 0.7345965382, 0.54855458105, -9.77288570405, 0.0, 0.0, 0.0, 0.7621139981, 1.03070833495, -10.061819033
17.7002689838, 0.551720584212, 0.756603690739, -14.0358330894, 0.6759723845, 0.5096712138, -9.7962157244, 0.0, 0.0, 0.0, 0.55214381495, 0.94695954395, -10.0588280047
17.7515749931, 0.551506754438, 0.717857626759, -14.0583721677, 0.74835526815, 0.40737804765, -9.894321451, 0.0, 0.0, 0.0, 0.6017948839, 0.8662017812, -10.0540423596
17.8020279408, 0.561711133685, 0.752946828938, -14.0368928664, 0.7082754896, 0.56650075055, -9.81057266, 0.0, 0.0, 0.0, 0.64546389635, 0.9667003304, -10.037890807
17.852298975, 0.553595878033, 0.75175897307, -14.0291738727, 0.71485575175, 0.52223353245, -9.80279598655, 0.0, 0.0, 0.0, 0.71964139695, 1.0325029519, -10.0701939121
17.903316021, 0.560962864908, 0.741889066873, -14.0246595146, 0.69810599355, 0.502492746, -9.79920675265, 0.0, 0.0, 0.0, 0.67537417885, 0.9667003304, -10.0408818352
17.9535608292, 0.588993045105, 0.768978649838, -14.0324692575, 0.7908278693, 0.6544369811, -9.85543808375, 0.0, 0.0, 0.0, 0.65742800935, 1.03190474625, -10.0426764522
18.0038108826, 0.589019020893, 0.775762880986, -14.0290000094, 0.7633104094, 0.56410792795, -9.86740219675, 0.0, 0.0, 0.0, 0.6041877065, 0.9678967417, -10.0175518149
18.0540018082, 0.618090758136, 0.762882260156, -14.047572044, 0.8279166196, 0.586241537, -9.8715896363, 0.0, 0.0, 0.0, 0.7130611348, 0.93738825355, -10.0343015731
18.1041789055, 0.623454422514, 0.77113365512, -14.0454865486, 0.813559684, 0.62033925905, -9.84586679335, 0.0, 0.0, 0.0, 0.65024954155, 0.8889335959, -10.0372926013
18.1543858051, 0.619847190806, 0.76727849869, -14.0437443258, 0.78544401845, 0.5706881901, -9.84945602725, 0.0, 0.0, 0.0, 0.63948183985, 0.9894321451, -10.0175518149
18.2045748234, 0.599388881565, 0.751645950994, -14.0437784614, 0.7752745224, 0.5108676251, -9.84586679335, 0.0, 0.0, 0.0, 0.60957155735, 0.9702895643, -10.0283195166
18.2548398972, 0.595307079285, 0.768358608269, -14.0415465351, 0.7932206919, 0.5994020613, -9.8811609267, 0.0, 0.0, 0.0, 0.60358950085, 0.9822536773, -10.0235338714
18.3050248623, 0.584090886777, 0.765440003755, -14.0524659087, 0.7106683122, 0.5192425042, -9.86979501935, 0.0, 0.0, 0.0, 0.67657059015, 1.00438728635, -10.0839526421
18.3551778793, 0.570431852269, 0.761382714115, -14.0620970756, 0.813559684, 0.65623159805, -9.8967142736, 0.0, 0.0, 0.0, 0.562313311, 0.8961120637, -9.978070242
18.4054269791, 0.578485894457, 0.785112347587, -14.0563735654, 0.7393821834, 0.55334022625, -9.82193856735, 0.0, 0.0, 0.0, 0.67058853365, 1.08335043215, -10.0911311099
18.4556097984, 0.570094261084, 0.785851886179, -14.0639311618, 0.7956135145, 0.59641103305, -9.8201439504, 0.0, 0.0, 0.0, 0.57726845225, 0.96729853605, -10.1240324206
18.5060689449, 0.547543409904, 0.781569144574, -14.0794413738, 0.75553373595, 0.6723831506, -9.83629550295, 0.0, 0.0, 0.0, 0.63230337205, 0.9631110965, -10.0235338714
18.5563769341, 0.569759540903, 0.840164070915, -14.0603145409, 0.78305119585, 0.6400800455, -9.83868832555, 0.0, 0.0, 0.0, 0.66221365455, 1.0348957745, -10.0689975008
18.6065449715, 0.574775837948, 0.836145147714, -14.0544079007, 0.78065837325, 0.6652046828, -9.8739824589, 0.0, 0.0, 0.0, 0.62632131555, 0.9822536773, -10.0313105448
18.6568169594, 0.550209555462, 0.849529192838, -14.0504732672, 0.78424760715, 0.6604190376, -9.8668039911, 0.0, 0.0, 0.0, 0.54975099235, 1.05104732705, -10.0229356657
18.7070598602, 0.519594082728, 0.812803185844, -14.049547086, 0.6233302873, 0.5072783912, -9.80877804305, 0.0, 0.0, 0.0, 0.5682953675, 1.00558369765, -10.0510513313
18.7574808598, 0.526812979063, 0.797575424959, -14.051472134, 0.74596244555, 0.5647061336, -9.8620183459, 0.0, 0.0, 0.0, 0.5766702466, 0.94456672135, -10.0612208274
18.8078730106, 0.530136547648, 0.814414020303, -14.0442722204, 0.741775006, 0.68255264665, -9.84586679335, 0.0, 0.0, 0.0, 0.61435720255, 1.0025926694, -10.0384890127
18.8580369949, 0.532233751404, 0.792068501131, -14.0429138207, 0.7238288365, 0.5670989562, -9.86261655155, 0.0, 0.0, 0.0, 0.5587240771, 0.9714859756, -10.0426764522
18.9082419872, 0.556972348635, 0.809217329211, -14.0378378563, 0.77706913935, 0.5778666579, -9.86022372895, 0.0, 0.0, 0.0, 0.5766702466, 1.02233345585, -9.97627562505
18.9584980011, 0.541416553846, 0.81273897653, -14.0387307861, 0.74237321165, 0.55692946015, -9.85065243855, 0.0, 0.0, 0.0, 0.54735816975, 1.00079805245, -10.0169536092
19.0088160038, 0.53456554364, 0.81182158358, -14.0341782231, 0.7716852885, 0.610169763, -9.8261260069, 0.0, 0.0, 0.0, 0.5611168997, 0.98404829425, -10.0654082669
19.0593090057, 0.525321814304, 0.790974828276, -13.9878925444, 0.73399833255, 0.55334022625, -9.6765745944, 0.0, 0.0, 0.0, 0.5754738353, 1.0025926694, -10.0037930849
19.1096978188, 0.542114639418, 0.804812466948, -14.0120978606, 0.7501498851, 0.57846486355, -9.88774118885, 0.0, 0.0, 0.0, 0.58325050875, 0.9439685157, -10.0073823188
19.1598880291, 0.542138887329, 0.82600790339, -14.0268246437, 0.71365934045, 0.7513462964, -9.8404829425, 0.0, 0.0, 0.0, 0.6257231099, 1.0109675485, -10.0636136499
19.2101249695, 0.519849670837, 0.804329411418, -14.0256681235, 0.7214360139, 0.49471607255, -9.87458066455, 0.0, 0.0, 0.0, 0.5467599641, 1.00319087505, -10.0127661697
19.2603969574, 0.551801208633, 0.807737295675, -14.0428555759, 0.83569329305, 0.68255264665, -9.86142014025, 0.0, 0.0, 0.0, 0.64426748505, 0.9068797654, -10.0504531256
19.3105788231, 0.537631198305, 0.803570491429, -14.0801946877, 0.72801627605, 0.58085768615, -9.9529456047, 0.0, 0.0, 0.0, 0.5012963347, 0.94217389875, -10.0833544364
19.3608379364, 0.562475336631, 0.799749421852, -14.0747943274, 0.74356962295, 0.6436692794, -9.89372324535, 0.0, 0.0, 0.0, 0.6376872229, 0.90987079365, -10.0031948793
19.4112238884, 0.51793126023, 0.793197395196, -14.0671929933, 0.7130611348, 0.52821558895, -9.9122676205, 0.0, 0.0, 0.0, 0.61555361385, 1.08335043215, -10.0701939121
19.4616789818, 0.549970986524, 0.796139166818, -14.0561505368, 0.729810893, 0.53659046805, -9.8428757651, 0.0, 0.0, 0.0, 0.59880385565, 0.96370930215, -10.0187482262
19.5119068623, 0.546551957844, 0.792635786743, -14.0317033933, 0.76271220375, 0.63948183985, -9.90090171315, 0.0, 0.0, 0.0, 0.59820565, 0.9643075078, -10.0103733471
19.5620808601, 0.534075054963, 0.803340593173, -14.0396799736, 0.77706913935, 0.60000026695, -9.90568735835, 0.0, 0.0, 0.0, 0.5874379483, 1.0253244841, -10.0043912906
19.6122620106, 0.548853006558, 0.797749886482, -14.0480383901, 0.73878397775, 0.5922235935, -9.84825961595, 0.0, 0.0, 0.0, 0.6125625856, 0.9702895643, -10.1072826624
19.6624708176, 0.516598940127, 0.786354715047, -14.0234939481, 0.6687939167, 0.5335994398, -9.78963546225, 0.0, 0.0, 0.0, 0.60119667825, 1.05583297225, -10.0468638917
19.7127029896, 0.496425776225, 0.789942240507, -14.0343810158, 0.6999006105, 0.5324030285, -9.81954574475, 0.0, 0.0, 0.0, 0.550349198, 1.0396814197, -10.1030952228
19.7629919052, 0.485197490525, 0.764615772636, -14.0273204288, 0.5228317381, 0.37028929735, -9.8033941922, 0.0, 0.0, 0.0, 0.75673014725, 1.02711910105, -10.0414800409
19.8132228851, 0.365259835442, 0.813995591956, -14.0429784, 0.46121655615, 0.5551348432, -9.8428757651, 0.0, 0.0, 0.0, 0.41336010415, 0.9846464999, -10.0731849404
19.8634870052, 0.405936800779, 0.787845243995, -14.0667776438, 0.7130611348, 0.57248280705, -9.87338425325, 0.0, 0.0, 0.0, 0.58325050875, 0.8709874264, -10.1599247596
19.9136638641, 0.387060314049, 0.803328759968, -14.0720892039, 0.60598232345, 0.6975077879, -9.88415195495, 0.0, 0.0, 0.0, 0.430708068, 0.83090764785, -10.0719885291
19.9640059471, 0.405942946853, 0.768399178556, -14.0772811552, 0.73040909865, 0.5072783912, -9.8548398781, 0.0, 0.0, 0.0, 0.51385865335, 0.95892365695, -10.0384890127
20.0144319534, 0.398565523457, 0.75677405008, -14.0745406983, 0.6664010941, 0.5180460929, -9.8021977809, 0.0, 0.0, 0.0, 0.4977071008, 0.9762716208, -10.1066844567
20.0646548271, 0.399564839112, 0.784964718679, -14.0719781299, 0.6005984726, 0.56889357315, -9.86142014025, 0.0, 0.0, 0.0, 0.4881358104, 1.0588240005, -10.1007024002
20.1149179935, 0.386888433291, 0.795020606809, -14.0656531208, 0.6484549246, 0.56530433925, -9.87458066455, 0.0, 0.0, 0.0, 0.4390829471, 0.9320044027, -10.0325069561
20.1660590172, 0.366081120763, 0.803921158945, -14.06705142, 0.7022934331, 0.61196437995, -9.88534836625, 0.0, 0.0, 0.0, 0.5491527867, 1.028913718, -10.1102736906
20.2169368267, 0.377486185717, 0.772084134364, -14.0871627838, 0.6448656907, 0.54496534715, -9.8787681041, 0.0, 0.0, 0.0, 0.4354937132, 0.8997012976, -10.1018988115
20.267223835, 0.414186398417, 0.817589948913, -14.0658299743, 0.64307107375, 0.66580288845, -9.89491965665, 0.0, 0.0, 0.0, 0.57726845225, 0.993021379, -10.0043912906
20.3174269199, 0.432141181252, 0.803906424193, -14.0693159185, 0.65982083195, 0.53300123415, -9.91765147135, 0.0, 0.0, 0.0, 0.54257252455, 1.00917293155, -10.0558369765
20.3677039146, 0.449990231065, 0.784381592898, -14.0755838189, 0.67417776755, 0.50309095165, -9.86979501935, 0.0, 0.0, 0.0, 0.5802594805, 0.9678967417, -10.0893364929
20.4181928635, 0.466834727755, 0.761986583914, -14.0595444273, 0.71007010655, 0.5072783912, -9.81236727695, 0.0, 0.0, 0.0, 0.5371886737, 1.00079805245, -10.0313105448
20.4683868885, 0.510635559264, 0.789324770545, -14.0651045814, 0.69571317095, 0.62751772685, -9.83031344645, 0.0, 0.0, 0.0, 0.74715885685, 0.86440716425, -10.0402836296
20.5185899734, 0.49027261061, 0.768411357545, -14.0369714723, 0.86560357555, 0.45284167705, -9.74058259895, 0.0, 0.0, 0.0, 0.33678978095, 0.8243273857, -9.91765147135
20.5687777996, 0.498180002499, 0.778060256946, -14.0603379291, 0.6616154489, 0.56530433925, -9.80399239785, 0.0, 0.0, 0.0, 0.53659046805, 1.03908321405, -10.0953185494
20.6194348335, 0.51779815362, 0.791716582906, -14.058355843, 0.72801627605, 0.67537417885, -9.8273224182, 0.0, 0.0, 0.0, 0.6281159325, 0.94695954395, -9.99781102845
20.6696670055, 0.52398599292, 0.796494155592, -14.0517117416, 0.80099736535, 0.5754738353, -9.8751788702, 0.0, 0.0, 0.0, 0.51625147595, 0.96729853605, -10.1126665132
20.7198159695, 0.543609507086, 0.790447222426, -14.049064226, 0.8063812162, 0.59880385565, -9.9074819753, 0.0, 0.0, 0.0, 0.6305087551, 0.9523433948, -10.0313105448
20.7701158524, 0.537899432686, 0.780234938782, -14.0747711418, 0.74715885685, 0.5240281494, -9.84945602725, 0.0, 0.0, 0.0, 0.61076796865, 1.0217352502, -10.157531937
20.8205559254, 0.569923579204, 0.790666668572, -14.0917106837, 0.8195417405, 0.56650075055, -9.88056272105, 0.0, 0.0, 0.0, 0.6687939167, 0.97208418125, -10.0887382872
20.8708198071, 0.568294732702, 0.780099605737, -14.1026717002, 0.7848458128, 0.502492746, -9.8715896363, 0.0, 0.0, 0.0, 0.58564333135, 1.028913718, -10.0516495369
20.9213228226, 0.600533128188, 0.778000282686, -14.0980953452, 0.77108708285, 0.5347958511, -9.8620183459, 0.0, 0.0, 0.0, 0.6747759732, 0.88713897895, -10.0845508477
20.9720079899, 0.586457612527, 0.786641201386, -14.0754161508, 0.64905313025, 0.52821558895, -9.89850889055, 0.0, 0.0, 0.0, 0.6388836342, 1.0253244841, -10.001998468
21.0222280025, 0.610435871155, 0.809172355495, -14.1033645304, 0.67417776755, 0.57607204095, -9.89611606795, 0.0, 0.0, 0.0, 0.63349978335, 1.07677017, -10.0755777629
21.0724649429, 0.626677917256, 0.755679362572, -14.0860723478, 0.8937192411, 0.44925244315, -9.822536773, 0.0, 0.0, 0.0, 0.69451675965, 0.9008977089, -10.0761759686
21.1226439476, 0.693035984349, 0.722643378358, -14.0775493125, 0.84765740605, 0.4582255279, -9.8859465719, 0.0, 0.0, 0.0, 0.6640082715, 0.92542414055, -10.0097751414
21.1728079319, 0.723204320372, 0.75397620446, -14.0531443411, 0.80697942185, 0.50428736295, -9.7639126193, 0.0, 0.0, 0.0, 0.77467631675, 1.028913718, -10.0594262104
21.2230088711, 0.718024802309, 0.728836318986, -14.0426361733, 0.88713897895, 0.53778687935, -9.8057870148, 0.0, 0.0, 0.0, 0.6173482308, 0.85722869645, -9.9732845968
21.2731838226, 0.790480466354, 0.765559492313, -14.0863992426, 0.9128618219, 0.5670989562, -9.87816989845, 0.0, 0.0, 0.0, 0.74955167945, 1.0731809361, -10.0875418759
21.3234469891, 0.86303170563, 0.746878365485, -14.0758322469, 0.9738787982, 0.57726845225, -9.8775716928, 0.0, 0.0, 0.0, 0.86560357555, 0.85962151905, -10.0761759686
21.3754580021, 0.894876835823, 0.754237215854, -14.0697563532, 1.0683952909, 0.5407779076, -9.8668039911, 0.0, 0.0, 0.0, 0.83688970435, 1.0456634762, -10.0761759686
21.4257059097, 1.02157669296, 0.699531563652, -14.0619715825, 1.16590281185, 0.52103712115, -9.80279598655, 0.0, 0.0, 0.0, 0.97806623775, 0.84047893825, -10.1007024002
21.4759399891, 1.05717634473, 0.675710807999, -14.0700723073, 1.18265257005, 0.57248280705, -9.9003035075, 0.0, 0.0, 0.0, 0.93619184225, 0.8099704501, -10.0953185494
21.5261788368, 1.13147295328, 0.696499062809, -14.0399774647, 1.2466605746, 0.4175475437, -9.80877804305, 0.0, 0.0, 0.0, 1.08215402085, 0.98763752815, -9.942177903
21.5768239498, 1.22576258748, 0.665507890311, -13.9957946132, 1.26999059495, 0.4701896409, -9.75613594585, 0.0, 0.0, 0.0, 1.1748758966, 0.9020941202, -9.98106127025
21.6273169518, 1.2726010949, 0.684137636444, -13.9963695561, 1.3004990831, 0.43848474145, -9.81236727695, 0.0, 0.0, 0.0, 1.1940184774, 0.94456672135, -10.0420782466
21.677562952, 1.30800343399, 0.648357080428, -13.9888881531, 1.3531411803, 0.4534398827, -9.74536824415, 0.0, 0.0, 0.0, 1.1341979124, 0.84526458345, -10.0731849404
21.7279720306, 1.36939361057, 0.657719104746, -13.9691374642, 1.3950155758, 0.5730810127, -9.80638522045, 0.0, 0.0, 0.0, 1.2023933565, 0.8542376682, -9.92004429395
21.7784659863, 1.42705471599, 0.664572933379, -14.0111592616, 1.3674981159, 0.4570291166, -9.84586679335, 0.0, 0.0, 0.0, 1.3004990831, 0.8997012976, -10.0725867347
21.828660965, 1.3902504773, 0.643944788327, -14.0087927471, 1.3615160594, 0.46959143525, -9.8440721764, 0.0, 0.0, 0.0, 1.05224373835, 0.7501498851, -9.96550792335
21.8789329529, 1.42410394023, 0.676913577572, -14.0291233335, 1.52841543575, 0.6532405698, -9.882357338, 0.0, 0.0, 0.0, 1.1437692028, 0.86799639815, -9.94875816515
21.929202795, 1.42345399884, 0.693798015872, -14.034368667, 1.3974083984, 0.4606183505, -9.81476009955, 0.0, 0.0, 0.0, 1.15633152145, 0.90867438235, -10.0516495369
21.9794478416, 1.39101991947, 0.682445229489, -13.9951357702, 1.2251251712, 0.45882373355, -9.77408211535, 0.0, 0.0, 0.0, 1.2550354537, 1.0384850084, -10.0402836296
22.0296268463, 1.35267766709, 0.672673068534, -14.0008134075, 1.2382856955, 0.48634119345, -9.87936630975, 0.0, 0.0, 0.0, 1.14197458585, 1.0492527101, -9.98106127025
22.0798180103, 1.28114295411, 0.69163915222, -13.9852483036, 1.18863462655, 0.5922235935, -9.726823869, 0.0, 0.0, 0.0, 0.97806623775, 0.92662055185, -10.1186485698
22.1299898624, 1.23356116252, 0.672496224327, -13.9960788199, 1.1892328322, 0.442672181, -9.8285188295, 0.0, 0.0, 0.0, 1.07856478695, 0.873380249, -10.0839526421
22.1806488037, 1.19236549191, 0.687873770018, -14.015322892, 1.14077817455, 0.56171510535, -9.92243711655, 0.0, 0.0, 0.0, 0.96969135865, 0.9391828705, -9.99182897195
22.2310199738, 1.15166593388, 0.684980424807, -13.9910546946, 1.0707881135, 0.5276173833, -9.77408211535, 0.0, 0.0, 0.0, 0.9978070242, 0.8506484343, -10.0217392544
22.2814359665, 1.1645966118, 0.685457861169, -14.0689828634, 1.1772687192, 0.5108676251, -9.94756175385, 0.0, 0.0, 0.0, 1.1018948073, 0.98883393945, -10.1952188929
22.3317158222, 1.09555338231, 0.690126649534, -14.1076780843, 1.10727865815, 0.4474578262, -10.0821580251, 0.0, 0.0, 0.0, 0.81176506705, 0.99601240725, -10.0959167551
22.3819758892, 1.06274989912, 0.722559821774, -14.1120733728, 1.11445712595, 0.5168496816, -9.8356972973, 0.0, 0.0, 0.0, 0.9678967417, 1.052841944, -10.1294162714
22.4322168827, 1.03489209536, 0.728260520821, -14.1135873259, 1.0241280728, 0.56769716185, -9.82313497865, 0.0, 0.0, 0.0, 0.9116654106, 0.87038922075, -10.1718888726
22.4824678898, 1.0026297645, 0.736935931762, -14.0887461767, 1.0899306943, 0.56291151665, -9.83390268035, 0.0, 0.0, 0.0, 0.86799639815, 0.8410771439, -10.1102736906
22.5328428745, 0.978347296926, 0.720888835184, -14.0741153238, 1.0875378717, 0.47856452, -9.8129654826, 0.0, 0.0, 0.0, 0.7956135145, 0.8662017812, -10.0283195166
22.5830509663, 0.982075318127, 0.721039023283, -14.0409671533, 1.00797652025, 0.51744788725, -9.8129654826, 0.0, 0.0, 0.0, 0.885344362, 1.00797652025, -9.95713304425
22.6333069801, 0.973097882565, 0.689023421891, -14.0383243001, 0.92303131795, 0.54257252455, -9.89850889055, 0.0, 0.0, 0.0, 0.9355936366, 0.78424760715, -10.0223374601
22.6835289001, 0.978890636341, 0.707577104459, -14.0359040177, 1.1198409768, 0.57008998445, -9.93679405215, 0.0, 0.0, 0.0, 0.8518448456, 0.70887369525, -9.96550792335
22.7337448597, 1.01091392398, 0.693865262357, -14.0662797048, 1.10368942425, 0.5587240771, -9.9266245561, 0.0, 0.0, 0.0, 0.96969135865, 0.77587272805, -10.0899346985
22.7840819359, 1.01259886385, 0.667267617977, -14.0216697838, 1.0612168231, 0.5910271822, -9.81057266, 0.0, 0.0, 0.0, 0.99242317335, 0.7561319416, -9.97268639115
22.8344340324, 1.03835760119, 0.649402777616, -14.0109005854, 1.1066804525, 0.4558327053, -9.7782695549, 0.0, 0.0, 0.0, 1.04506527055, 0.95174518915, -9.96670433465
22.8846390247, 1.1057338414, 0.643751021609, -14.0163301624, 1.14556381975, 0.58205409745, -9.94995457645, 0.0, 0.0, 0.0, 1.04745809315, 0.7932206919, -9.93559764085
22.9348659515, 1.1205185677, 0.658455829765, -13.9967460152, 1.1114660977, 0.52821558895, -9.8189475391, 0.0, 0.0, 0.0, 1.0492527101, 0.84646099475, -10.0570333878
22.9850409031, 1.16820073775, 0.687168983463, -13.9991243887, 1.24486595765, 0.4582255279, -9.80758163175, 0.0, 0.0, 0.0, 1.07617196435, 0.99840522985, -10.0785687912
23.0352048874, 1.20096616698, 0.648445801008, -13.9875949217, 1.2634103328, 0.5443671415, -9.82074215605, 0.0, 0.0, 0.0, 1.04386885925, 0.69930240485, -9.95474022165
23.0854918957, 1.22630581874, 0.661517356153, -13.98970343, 1.26041930455, 0.44925244315, -9.8213403617, 0.0, 0.0, 0.0, 1.08215402085, 0.85244305125, -10.0175518149
23.1358249187, 1.25048283772, 0.628535682883, -13.9799088157, 1.26999059495, 0.4175475437, -9.786644434, 0.0, 0.0, 0.0, 1.1138589203, 0.8063812162, -10.0055877019
23.1860258579, 1.27998337656, 0.60898733998, -13.9693649254, 1.2753744458, 0.4390829471, -9.77767134925, 0.0, 0.0, 0.0, 1.13838535195, 0.8482556117, -9.990034355
23.2363638878, 1.29312127753, 0.603731376902, -13.9741642068, 1.33100757125, 0.454636294, -9.84586679335, 0.0, 0.0, 0.0, 1.1114660977, 0.80219377665, -10.0025966737
23.2865858078, 1.30424627212, 0.593185128741, -14.0002113447, 1.2550354537, 0.38105699905, -9.90688376965, 0.0, 0.0, 0.0, 1.19222386045, 0.8291130309, -10.0127661697
23.3367860317, 1.30639731611, 0.591776202833, -14.0030706308, 1.25443724805, 0.4414757697, -9.82193856735, 0.0, 0.0, 0.0, 1.0947163395, 0.82731841395, -10.025926694
23.3870089054, 1.33079580902, 0.614167138034, -14.0158857177, 1.339980656, 0.55812587145, -9.8512506442, 0.0, 0.0, 0.0, 1.14436740845, 0.91704926145, -10.0271231053
23.4371328354, 1.3136559206, 0.609550396642, -14.0264351992, 1.31306140175, 0.4821537539, -9.882357338, 0.0, 0.0, 0.0, 1.08693966605, 0.8410771439, -9.99182897195
23.487295866, 1.29721724003, 0.599479673592, -14.0177539358, 1.24247313505, 0.47856452, -9.7938229018, 0.0, 0.0, 0.0, 1.1234302107, 0.9403792818, -10.1013006059
23.5374829769, 1.30282696177, 0.619461708754, -14.0346692896, 1.244267752, 0.4115654872, -9.89611606795, 0.0, 0.0, 0.0, 1.124626622, 0.96370930215, -10.0396854239
23.5876779556, 1.30099055997, 0.617903469383, -13.9964990455, 1.2909277927, 0.48873401605, -9.77168929275, 0.0, 0.0, 0.0, 1.2059825904, 0.9320044027, -10.0235338714
23.6378948689, 1.29189028774, 0.648149020386, -13.9998139242, 1.23529466725, 0.4833501652, -9.67717280005, 0.0, 0.0, 0.0, 1.1078768638, 0.8327022648, -10.0265248996
23.6881330013, 1.26600563566, 0.641930633013, -14.0067239351, 1.2143574695, 0.4235296002, -9.79322469615, 0.0, 0.0, 0.0, 1.1186445655, 0.96969135865, -10.0689975008
23.7385048866, 1.27533658652, 0.622441875427, -14.00588348, 1.25084801415, 0.3756731482, -9.6382894328, 0.0, 0.0, 0.0, 1.1138589203, 0.885344362, -10.1754781065
23.7887089252, 1.29624559617, 0.614720829739, -13.9888605126, 1.31665063565, 0.4522434714, -9.81236727695, 0.0, 0.0, 0.0, 1.1210373881, 0.9487541609, -10.0713903234
23.8388729095, 1.26544812595, 0.621614577999, -14.0027318021, 1.2909277927, 0.5228317381, -9.8057870148, 0.0, 0.0, 0.0, 1.04745809315, 0.83928252695, -10.0462656861
23.8890459538, 1.25372611695, 0.64108381308, -14.0119888197, 1.18743821525, 0.4043870194, -9.8153583052, 0.0, 0.0, 0.0, 0.9846464999, 0.93140619705, -9.96550792335
23.9393849373, 1.25630930097, 0.651836593126, -14.0206069202, 1.20179515085, 0.55692946015, -9.87338425325, 0.0, 0.0, 0.0, 1.2035897678, 0.85722869645, -10.0402836296
23.9896068573, 1.24782276362, 0.636648471243, -14.0160310978, 1.2095718243, 0.54257252455, -9.86859860805, 0.0, 0.0, 0.0, 1.07677017, 0.83808611565, -9.97986485895
24.0398769379, 1.22587191263, 0.636943902408, -14.0000568967, 1.16111716665, 0.4534398827, -9.7435736272, 0.0, 0.0, 0.0, 1.02711910105, 0.8458627891, -10.0420782466
24.0901298523, 1.22672170436, 0.642847964976, -13.9873658132, 1.3136596074, 0.51146583075, -9.834500886, 0.0, 0.0, 0.0, 1.02113704455, 0.82851482525, -9.98345409285
24.1403698921, 1.23687631941, 0.631113406527, -13.9839851183, 1.3208380752, 0.4713860522, -9.86620578545, 0.0, 0.0, 0.0, 1.00438728635, 0.7716852885, -9.9397850804
24.1906108856, 1.24276469866, 0.629567631521, -13.9675363785, 1.2215359373, 0.4450650036, -9.8321080634, 0.0, 0.0, 0.0, 1.08813607735, 0.8781658942, -9.9194460883
24.240913868, 1.22810130995, 0.674896648719, -13.9888554534, 1.19102744915, 0.52582276635, -9.83150985775, 0.0, 0.0, 0.0, 0.9894321451, 0.81296147835, -9.9816594759
24.2910528183, 1.23959927346, 0.668219346372, -14.0158811015, 1.1856435983, 0.42293139455, -9.7686982645, 0.0, 0.0, 0.0, 1.10967148075, 1.0468598875, -10.1054880454
24.3412418365, 1.26237585483, 0.660237201532, -14.0286227024, 1.23649107855, 0.4630111731, -9.81834933345, 0.0, 0.0, 0.0, 1.11086789205, 0.9308079914, -10.0014002623
24.3915219307, 1.25742173982, 0.646776258511, -14.0102308117, 1.2658031554, 0.48873401605, -9.8045906035, 0.0, 0.0, 0.0, 0.99840522985, 0.88474615635, -9.978070242
24.441699028, 1.26822090223, 0.67528172847, -13.9987262383, 1.2454641633, 0.5706881901, -9.8452685877, 0.0, 0.0, 0.0, 1.1066804525, 0.97328059255, -9.9625168951
24.4919090271, 1.27409555637, 0.62507123009, -13.9705456305, 1.232303639, 0.4606183505, -9.70469025995, 0.0, 0.0, 0.0, 1.10488583555, 0.79142607495, -9.98823973805
24.5422019958, 1.28424566483, 0.565878106112, -13.9743642083, 1.25324083675, 0.4139583098, -9.80638522045, 0.0, 0.0, 0.0, 1.16829563445, 0.74955167945, -10.0343015731
24.5924417973, 1.29208320221, 0.586050460014, -13.9963449502, 1.2933206153, 0.49112683865, -9.84108114815, 0.0, 0.0, 0.0, 1.1533404932, 0.87517486595, -10.0791669969
24.6427028179, 1.282428174, 0.604518952533, -13.9863792497, 1.24247313505, 0.4929214556, -9.8333044747, 0.0, 0.0, 0.0, 1.15274228755, 0.9236295236, -10.013962581
24.6930449009, 1.2690513061, 0.600496114713, -13.988155632, 1.3184452526, 0.52701917765, -9.83150985775, 0.0, 0.0, 0.0, 1.03549398015, 0.80578301055, -10.0271231053
24.7432010174, 1.26191925312, 0.633176187055, -13.9942645727, 1.1892328322, 0.4534398827, -9.82911703515, 0.0, 0.0, 0.0, 1.18863462655, 1.004985492, -10.0731849404
24.7934389114, 1.24899841443, 0.597430838404, -13.9921274586, 1.12881406155, 0.4151547211, -9.7651090306, 0.0, 0.0, 0.0, 0.9822536773, 0.7800601676, -10.0043912906
24.8436288834, 1.26412335546, 0.613522932435, -14.0069073415, 1.2167502921, 0.5048855686, -9.84945602725, 0.0, 0.0, 0.0, 1.0552347666, 0.86560357555, -9.95952586685
24.8938009739, 1.24562111429, 0.601328393804, -14.0026769865, 1.2897313814, 0.44805603185, -9.80279598655, 0.0, 0.0, 0.0, 1.0420742423, 0.85483587385, -9.9601240725
24.9440228939, 1.24136991217, 0.598055292493, -13.9936731032, 1.24725878025, 0.4606183505, -9.8081798374, 0.0, 0.0, 0.0, 1.08335043215, 0.85842510775, -9.9397850804
24.9942169189, 1.18689281566, 0.599043447851, -13.9889102523, 1.136590735, 0.43250268495, -9.79681393005, 0.0, 0.0, 0.0, 0.94695954395, 0.86679998685, -10.03609619
25.0443639755, 1.16902260235, 0.595497912979, -13.9883885621, 1.20538438475, 0.45044885445, -9.7639126193, 0.0, 0.0, 0.0, 1.0444670649, 0.7848458128, -10.0061859075
25.0945780277, 1.16223146895, 0.60628494599, -13.9960303048, 1.18863462655, 0.49591248385, -9.84467038205, 0.0, 0.0, 0.0, 0.9643075078, 0.8386843213, -10.0504531256
25.1447999477, 1.15835207481, 0.606404981851, -13.9762325488, 1.18504539265, 0.4366901245, -9.66879792095, 0.0, 0.0, 0.0, 0.9978070242, 0.88474615635, -9.99781102845
25.19520998, 1.16077638981, 0.588224985965, -13.9855672103, 1.2227323486, 0.4881358104, -9.8380901199, 0.0, 0.0, 0.0, 1.00917293155, 0.79262248625, -9.95952586685
25.2456378937, 1.14007528593, 0.620984829791, -13.9918630892, 1.11326071465, 0.4929214556, -9.80758163175, 0.0, 0.0, 0.0, 1.0348957745, 0.8506484343, -9.9732845968
25.2959020138, 1.13234172001, 0.605006351019, -13.9945241788, 1.0073783146, 0.3684946804, -9.7806623775, 0.0, 0.0, 0.0, 1.124626622, 0.8506484343, -10.0325069561
25.346282959, 1.09318057234, 0.611717118543, -14.0090374113, 1.11565353725, 0.4642075844, -9.83031344645, 0.0, 0.0, 0.0, 0.91106720495, 0.87637127725, -9.9972128228
25.3966748714, 1.08859077585, 0.653119100496, -14.0086095709, 1.0743773474, 0.5324030285, -9.79202828485, 0.0, 0.0, 0.0, 1.00079805245, 0.89671026935, -9.99781102845
25.4468379021, 1.07776737851, 0.648411932007, -14.009862639, 1.09890377905, 0.42532421715, -9.8177511278, 0.0, 0.0, 0.0, 0.88953180155, 0.8482556117, -10.0426764522
25.4971299171, 1.06694894027, 0.632583298715, -14.019858581, 1.12642123895, 0.4283152454, -9.8368937086, 0.0, 0.0, 0.0, 0.9308079914, 0.8446663778, -10.0582297991
25.5473539829, 1.07275127394, 0.65282744842, -14.0226967291, 1.1521440819, 0.4941178669, -9.88056272105, 0.0, 0.0, 0.0, 0.93260260835, 0.89671026935, -9.9852487098
25.5976538658, 1.04546987464, 0.653369645793, -14.02175976, 1.148554848, 0.52223353245, -9.84586679335, 0.0, 0.0, 0.0, 0.9032905315, 0.8410771439, -10.0707921177
25.6485548019, 1.0470429961, 0.680658846345, -14.0093525729, 1.1198409768, 0.5659025449, -9.8153583052, 0.0, 0.0, 0.0, 0.93020978575, 0.7908278693, -9.96790074595
25.6992218494, 1.03618619711, 0.673509153979, -14.0180736298, 1.1210373881, 0.4283152454, -9.8680004024, 0.0, 0.0, 0.0, 0.87996051115, 0.92662055185, -9.9840522985
25.7497289181, 1.00969337113, 0.651098844497, -14.0186638506, 1.04267244795, 0.42532421715, -9.85065243855, 0.0, 0.0, 0.0, 0.9308079914, 0.83210405915, -10.0265248996
25.8003778458, 1.01180003817, 0.655567485328, -14.0271693428, 1.03190474625, 0.5407779076, -9.85902731765, 0.0, 0.0, 0.0, 0.87397845465, 0.8913264185, -10.0672028838
25.8506100178, 0.985334990957, 0.658071847696, -14.029372537, 1.040877831, 0.5659025449, -9.83868832555, 0.0, 0.0, 0.0, 0.84167534955, 0.9164510558, -10.0247302827
25.9008300304, 0.990788220833, 0.659601100914, -14.0186813478, 1.09292172255, 0.49232324995, -9.7698946758, 0.0, 0.0, 0.0, 0.92422772925, 0.9511469835, -10.073783146
25.9510807991, 0.969269455736, 0.662330856775, -14.032253099, 0.95174518915, 0.52701917765, -9.8249295956, 0.0, 0.0, 0.0, 0.82372918005, 0.87637127725, -10.0767741743
26.0013439655, 0.95987579696, 0.657128887307, -14.0304659175, 1.03549398015, 0.49950171775, -9.83629550295, 0.0, 0.0, 0.0, 0.9080761767, 1.02951192365, -10.1174521584
26.0524938107, 0.956293564903, 0.690189681487, -14.0398640991, 1.06660067395, 0.52941200025, -9.8691968137, 0.0, 0.0, 0.0, 0.89072821285, 0.8877371846, -10.0289177222
26.102976799, 0.955266381256, 0.659846910404, -14.0237915939, 1.040877831, 0.45643091095, -9.86381296285, 0.0, 0.0, 0.0, 0.83688970435, 0.88594256765, -9.99661461715
26.1534848213, 0.945588954689, 0.665400207695, -14.0146735829, 1.01874422195, 0.514456859, -9.846464999, 0.0, 0.0, 0.0, 0.87996051115, 0.90388873715, -9.9948200002
26.2036859989, 0.9414327898, 0.674430063426, -14.008056617, 1.0360921858, 0.5228317381, -9.85304526115, 0.0, 0.0, 0.0, 0.8578269021, 0.86321075295, -9.9972128228
26.2539288998, 0.939034386944, 0.686069685109, -14.0545038085, 0.97328059255, 0.51266224205, -9.94516893125, 0.0, 0.0, 0.0, 0.9367900479, 0.86201434165, -10.1641121991
26.3041729927, 0.897504031021, 0.684815897923, -14.0913757922, 0.96251289085, 0.44685962055, -9.94038328605, 0.0, 0.0, 0.0, 0.77587272805, 0.88115692245, -10.0283195166
26.3544538021, 0.894691290903, 0.675925504932, -14.1327183864, 1.0336993632, 0.4450650036, -9.9732845968, 0.0, 0.0, 0.0, 0.8087740388, 0.7884350467, -10.1682996387
26.4047858715, 0.871960266008, 0.679486459809, -14.1168737918, 0.84287176085, 0.53778687935, -9.90449094705, 0.0, 0.0, 0.0, 0.8267202083, 0.8685946038, -10.0660064725
26.4552278519, 0.853832044197, 0.667571880159, -14.1058494717, 0.95892365695, 0.37866417645, -9.79561751875, 0.0, 0.0, 0.0, 0.7166503687, 0.91824567275, -10.0426764522
26.5054728985, 0.830499607944, 0.6767982655, -14.1043631013, 0.9750752095, 0.5647061336, -9.9014999188, 0.0, 0.0, 0.0, 0.6783652071, 0.8697910151, -10.097711372
26.5557219982, 0.797435768589, 0.685866892102, -14.0828287657, 0.8027919823, 0.42053857195, -9.894321451, 0.0, 0.0, 0.0, 0.7334001269, 0.92781696315, -10.0354979844
26.6058878899, 0.796574397152, 0.703299431617, -14.0326709575, 0.9248259349, 0.65024954155, -9.83868832555, 0.0, 0.0, 0.0, 0.81535430095, 0.9248259349, -10.0133643753
26.6560709476, 0.75332559814, 0.706065527214, -14.0454235128, 0.88354974505, 0.48634119345, -9.87816989845, 0.0, 0.0, 0.0, 0.61914284775, 0.8961120637, -9.99781102845
26.7063410282, 0.748484514336, 0.690719613158, -14.0584762275, 0.82731841395, 0.622133876, -9.92124070525, 0.0, 0.0, 0.0, 0.8075776275, 0.8422735552, -10.0313105448
26.7565529346, 0.721854949769, 0.71814243512, -14.0530245507, 0.84765740605, 0.61555361385, -9.8524470555, 0.0, 0.0, 0.0, 0.7573283529, 0.933200814, -10.0689975008
26.8069319725, 0.693775667294, 0.731237965233, -14.0622625063, 0.7944171032, 0.47318066915, -9.8189475391, 0.0, 0.0, 0.0, 0.67896341275, 0.9942177903, -10.1126665132
26.8573889732, 0.682931251931, 0.735718425211, -14.0740666123, 0.825523797, 0.39780675725, -9.90688376965, 0.0, 0.0, 0.0, 0.66460647715, 0.93499543095, -10.0953185494
26.9076769352, 0.683675399858, 0.737811290478, -14.0625503831, 0.8398807326, 0.57487562965, -9.7914300792, 0.0, 0.0, 0.0, 0.74715885685, 0.9032905315, -10.0773723799
26.9578850269, 0.696376375076, 0.723975360495, -14.0676728197, 0.77467631675, 0.538385085, -9.8356972973, 0.0, 0.0, 0.0, 0.71126651785, 0.88833539025, -10.0588280047
27.0080418587, 0.694598260945, 0.726700301136, -14.0805977485, 0.8602197247, 0.52342994375, -9.84227755945, 0.0, 0.0, 0.0, 0.71246292915, 0.80937224445, -10.1473624409
27.058287859, 0.705654989564, 0.753962161159, -14.0876697022, 0.81774712355, 0.610169763, -9.89850889055, 0.0, 0.0, 0.0, 0.777667345, 0.9798608547, -10.0815598194
27.1085598469, 0.705985053302, 0.734979491383, -14.0639535768, 0.8889335959, 0.51625147595, -9.8153583052, 0.0, 0.0, 0.0, 0.6161518195, 0.9236295236, -10.0534441539
27.1590559483, 0.7080247512, 0.730037500367, -14.0698468229, 0.86081793035, 0.4594219392, -9.8165547165, 0.0, 0.0, 0.0, 0.71126651785, 0.98165547165, -10.0540423596
27.2093629837, 0.718230747115, 0.742897463917, -14.0623673208, 0.89551385805, 0.5670989562, -9.8500542329, 0.0, 0.0, 0.0, 0.7668996433, 1.004985492, -10.0564351822
27.2597978115, 0.716793419146, 0.718909825943, -14.066503878, 0.91346002755, 0.4570291166, -9.8991070962, 0.0, 0.0, 0.0, 0.6843472636, 0.97567341515, -10.0223374601
27.3101379871, 0.727600525417, 0.741499562225, -14.1397472906, 0.9104689993, 0.6616154489, -9.9373922578, 0.0, 0.0, 0.0, 0.73758756645, 0.9798608547, -10.2496556071
27.3603730202, 0.712351039404, 0.745488130898, -14.13321294, 0.80817583315, 0.6065805291, -9.9349994352, 0.0, 0.0, 0.0, 0.71844498565, 0.7752745224, -10.0426764522
27.4105570316, 0.704372969695, 0.740786753534, -14.1247128134, 0.9559326287, 0.61435720255, -9.8847501606, 0.0, 0.0, 0.0, 0.6197410534, 0.9906285564, -10.1587283483
27.460819006, 0.721319820567, 0.711800307378, -14.0922004796, 0.91824567275, 0.53419764545, -9.894321451, 0.0, 0.0, 0.0, 0.7429714173, 0.88833539025, -10.0085787301
27.5111689568, 0.723223238876, 0.730428811656, -14.0992591146, 0.8602197247, 0.43489550755, -9.822536773, 0.0, 0.0, 0.0, 0.849452023, 0.90628155975, -10.157531937
27.5613508224, 0.734362636524, 0.697406447863, -14.0817757036, 0.86440716425, 0.52701917765, -9.89611606795, 0.0, 0.0, 0.0, 0.7238288365, 0.88833539025, -10.0055877019
27.6116809845, 0.735408341274, 0.727483547186, -14.0594455437, 0.92781696315, 0.57607204095, -9.8380901199, 0.0, 0.0, 0.0, 0.7082754896, 0.9726823869, -10.0492567143
27.6619260311, 0.730136107632, 0.726064530825, -14.0693744912, 0.9140582332, 0.46121655615, -9.8201439504, 0.0, 0.0, 0.0, 0.70408805005, 1.0504491214, -10.0420782466
27.7121298313, 0.759622412444, 0.73932348177, -14.0777582032, 0.9822536773, 0.45882373355, -9.83988473685, 0.0, 0.0, 0.0, 0.7310073043, 1.0157531937, -10.1204431867
27.7624928951, 0.738280637856, 0.780542694729, -14.0723383431, 0.9379864592, 0.5682953675, -9.83988473685, 0.0, 0.0, 0.0, 0.6975077879, 1.04027962535, -10.0809616138
27.8127088547, 0.738864720075, 0.721091090378, -14.0704142349, 0.86081793035, 0.45882373355, -9.85184884985, 0.0, 0.0, 0.0, 0.72801627605, 0.84406817215, -10.0217392544
27.8629729748, 0.752495115419, 0.713181922417, -14.0792356094, 0.9296115801, 0.53539405675, -9.88534836625, 0.0, 0.0, 0.0, 0.71724857435, 0.86799639815, -9.9673025403
27.9133839607, 0.774870913514, 0.732308205058, -14.0865699263, 0.91346002755, 0.49710889515, -9.8213403617, 0.0, 0.0, 0.0, 0.8422735552, 1.02592268975, -10.1790673404
27.9636459351, 0.82451062056, 0.766598986243, -14.0789856262, 0.99361958465, 0.6161518195, -9.9732845968, 0.0, 0.0, 0.0, 0.81296147835, 0.9678967417, -9.95952586685
28.0139708519, 0.80802917146, 0.750674879172, -14.0756057344, 0.9547362174, 0.50787659685, -9.8739824589, 0.0, 0.0, 0.0, 0.76390861505, 1.03908321405, -10.0396854239
28.0642018318, 0.777715966577, 0.724692124498, -14.0592326181, 0.8769694829, 0.54137611325, -9.88774118885, 0.0, 0.0, 0.0, 0.8003991597, 0.91704926145, -10.0546405652
28.1143980026, 0.816381636176, 0.749422488808, -14.0753339616, 0.9894321451, 0.43728833015, -9.8895358058, 0.0, 0.0, 0.0, 0.84526458345, 0.90628155975, -10.0151589923
28.1646049023, 0.817125708737, 0.739751881699, -14.0698852179, 0.9260223462, 0.55812587145, -9.7974121357, 0.0, 0.0, 0.0, 0.8327022648, 1.0097711372, -10.073783146
28.2147989273, 0.808647050291, 0.72172929887, -14.086920678, 0.9164510558, 0.56769716185, -9.9278209674, 0.0, 0.0, 0.0, 0.7836494015, 0.8482556117, -10.1377911506
28.2649898529, 0.850563225305, 0.714704409932, -14.0657387811, 0.9583254513, 0.6472585133, -9.9134640318, 0.0, 0.0, 0.0, 0.8482556117, 0.78903325235, -9.99302538325
28.3152418137, 0.854048316789, 0.726689519101, -14.058893989, 0.9643075078, 0.49950171775, -9.822536773, 0.0, 0.0, 0.0, 0.8650053699, 0.9798608547, -10.1120683076
28.3654978275, 0.90769800843, 0.674094393583, -14.0367944262, 1.0372885971, 0.6556333924, -9.8979106849, 0.0, 0.0, 0.0, 0.8961120637, 0.79142607495, -9.90927659225
28.415763855, 0.893099535941, 0.712898284074, -14.0484476204, 1.0001998468, 0.50668018555, -9.85783090635, 0.0, 0.0, 0.0, 0.86679998685, 0.8781658942, -10.0570333878
28.4660258293, 0.909455706004, 0.690535341401, -14.0477991283, 1.00079805245, 0.49591248385, -9.8787681041, 0.0, 0.0, 0.0, 0.8769694829, 0.85005022865, -10.0055877019
28.5162467957, 0.892496308251, 0.689225450729, -14.0582088993, 0.96729853605, 0.41216369285, -9.8608219346, 0.0, 0.0, 0.0, 0.83688970435, 0.9702895643, -10.1497552636
28.5665140152, 0.921557264431, 0.689161234639, -14.0457064507, 1.06779708525, 0.39661034595, -9.92602635045, 0.0, 0.0, 0.0, 0.83688970435, 1.0348957745, -10.012167964
28.6169137955, 0.91999939709, 0.695132480616, -14.0235973383, 1.02352986715, 0.53898329065, -9.85902731765, 0.0, 0.0, 0.0, 0.8877371846, 0.87038922075, -9.95713304425
28.667083025, 0.958793638383, 0.685575503168, -14.0228828693, 1.2143574695, 0.50428736295, -9.78963546225, 0.0, 0.0, 0.0, 0.83210405915, 0.75314091335, -10.04985492
28.7172789574, 0.965093613167, 0.706071939939, -14.019253586, 1.05104732705, 0.52462635505, -9.80638522045, 0.0, 0.0, 0.0, 0.88594256765, 1.01874422195, -10.0576315934
28.7674498558, 0.98089571188, 0.692406202844, -14.017764522, 1.1473584367, 0.45643091095, -9.9050891527, 0.0, 0.0, 0.0, 0.8877371846, 0.9882357338, -10.0277213109
28.8196718693, 0.986553873271, 0.679231930832, -14.0278280262, 1.0372885971, 0.56769716185, -9.8727860476, 0.0, 0.0, 0.0, 0.8769694829, 0.91944208405, -10.1054880454
28.8698198795, 0.994076211356, 0.670678199693, -14.0490162594, 1.1437692028, 0.53300123415, -9.8153583052, 0.0, 0.0, 0.0, 0.8949156524, 0.92183490665, -10.1288180658
28.919975996, 0.991021258391, 0.640590473772, -14.0457437407, 0.99601240725, 0.50548377425, -9.8835537493, 0.0, 0.0, 0.0, 0.90867438235, 0.7884350467, -9.9074819753
28.9702379704, 0.979030270059, 0.631047233679, -14.041526315, 1.0480562988, 0.5527420206, -9.8799645154, 0.0, 0.0, 0.0, 0.86081793035, 0.85603228515, -10.0235338714
29.0207009315, 1.00161742735, 0.619962212187, -14.0492917952, 1.1437692028, 0.4414757697, -9.85424167245, 0.0, 0.0, 0.0, 0.85842510775, 0.7740781111, -10.0175518149
29.0710639954, 1.02159075561, 0.656462364525, -14.0142846585, 1.0660024683, 0.4773681087, -9.786644434, 0.0, 0.0, 0.0, 0.9858429112, 1.0336993632, -10.0271231053
29.1213479042, 1.01809693827, 0.701528761708, -14.0163844416, 1.0935199282, 0.4594219392, -9.834500886, 0.0, 0.0, 0.0, 0.8865407733, 1.06660067395, -9.9720881855
29.1717398167, 1.01743516196, 0.737432315505, -14.0029976945, 1.15034946495, 0.502492746, -9.80638522045, 0.0, 0.0, 0.0, 0.8542376682, 1.0097711372, -9.96550792335
29.2221579552, 1.03755128198, 0.672505322837, -14.0460726959, 1.1210373881, 0.5527420206, -9.94756175385, 0.0, 0.0, 0.0, 0.9559326287, 0.75792655855, -10.0546405652
29.2726008892, 1.04172926178, 0.681267237796, -14.0147264154, 1.08335043215, 0.5694917788, -9.8488578216, 0.0, 0.0, 0.0, 0.9667003304, 0.8805587168, -10.0067841132
29.3230819702, 1.06048426056, 0.652785722302, -14.0108198661, 1.1210373881, 0.52701917765, -9.81954574475, 0.0, 0.0, 0.0, 0.9463613383, 0.78903325235, -9.9696953629
29.3734529018, 1.05601578731, 0.66840914593, -14.0243594727, 1.06540426265, 0.5168496816, -9.79322469615, 0.0, 0.0, 0.0, 0.9116654106, 1.004985492, -10.0313105448
29.4236598015, 1.08643038219, 0.658014461631, -14.0220863071, 1.14556381975, 0.51625147595, -9.79442110745, 0.0, 0.0, 0.0, 0.9858429112, 0.8482556117, -10.0767741743
29.4737889767, 1.09146476521, 0.67080748052, -14.0231894218, 1.1712866627, 0.48753760475, -9.83749191425, 0.0, 0.0, 0.0, 0.9379864592, 0.86560357555, -10.0265248996
29.5240769386, 1.09730479499, 0.656581997238, -14.0438941998, 0.95054877785, 0.4929214556, -9.8871429832, 0.0, 0.0, 0.0, 1.02711910105, 0.753739119, -9.9948200002
29.5746159554, 1.10087036141, 0.650356558477, -14.0295298469, 1.2693923893, 0.49950171775, -9.8237331843, 0.0, 0.0, 0.0, 0.9678967417, 0.81176506705, -10.0408818352
29.6250789165, 1.11549166423, 0.644901889759, -14.0253094555, 1.18624180395, 0.52342994375, -9.8763752815, 0.0, 0.0, 0.0, 0.92662055185, 0.8410771439, -9.96670433465
29.6755290031, 1.12205575916, 0.651825511413, -14.0148152359, 1.07018990785, 0.4881358104, -9.82433138995, 0.0, 0.0, 0.0, 1.01994063325, 0.89790668065, -10.0265248996
29.7272129059, 1.13042328191, 0.636485505524, -13.9911228109, 1.15633152145, 0.550349198, -9.8141618939, 0.0, 0.0, 0.0, 1.0229316615, 0.801595571, -9.9984092341
29.7774958611, 1.09413459569, 0.632130219111, -14.002750486, 1.27597265145, 0.57008998445, -9.8859465719, 0.0, 0.0, 0.0, 1.10368942425, 0.88235333375, -10.03609619
29.827644825, 1.14768919485, 0.626144948261, -14.0036066664, 1.1676974288, 0.50668018555, -9.77527852665, 0.0, 0.0, 0.0, 0.97686982645, 0.74835526815, -10.0151589923
29.8777987957, 1.16768310168, 0.644376469275, -13.9961633902, 1.21136644125, 0.502492746, -9.84108114815, 0.0, 0.0, 0.0, 1.11924277115, 0.83330047045, -10.0037930849
29.9279630184, 1.16431844678, 0.636838382699, -14.0019517756, 1.2131610582, 0.46121655615, -9.85304526115, 0.0, 0.0, 0.0, 0.98165547165, 0.87278204335, -9.9684989516
29.9781339169, 1.16695501132, 0.609349137681, -13.9854016582, 1.13958176325, 0.4402793584, -9.78724263965, 0.0, 0.0, 0.0, 1.02951192365, 0.83449688175, -10.024132077
30.0282838345, 1.17430700733, 0.63808658373, -13.9992018525, 1.124626622, 0.47796631435, -9.80040316395, 0.0, 0.0, 0.0, 1.2071790017, 1.004985492, -10.0474620974
30.0784409046, 1.17611838608, 0.661826031608, -14.0061053946, 1.1880364209, 0.4809573426, -9.8321080634, 0.0, 0.0, 0.0, 1.0600204118, 0.97088776995, -10.0133643753
30.1286129951, 1.15711393163, 0.644291345439, -13.9962200274, 1.1748758966, 0.5455635528, -9.8273224182, 0.0, 0.0, 0.0, 1.0241280728, 0.77228349415, -9.978070242
30.1788258553, 1.13669146788, 0.650698257948, -14.0075739725, 1.1413763802, 0.5599204884, -9.822536773, 0.0, 0.0, 0.0, 0.98524470555, 0.8542376682, -10.0301141335
30.2289948463, 1.13310694341, 0.623708640855, -13.9981353653, 1.20059873955, 0.4618147618, -9.8273224182, 0.0, 0.0, 0.0, 0.9990034355, 0.79381889755, -9.9828558872
30.2791469097, 1.1137786878, 0.633451001462, -14.005891579, 0.9667003304, 0.5479563754, -9.90449094705, 0.0, 0.0, 0.0, 0.97328059255, 0.80339018795, -9.93799046345
30.3293178082, 1.03657424985, 0.642987866885, -14.0463128563, 1.13958176325, 0.4319044793, -9.87577707585, 0.0, 0.0, 0.0, 0.7262216591, 0.79022966365, -10.0414800409
30.3794820309, 1.07046453843, 0.657477576382, -14.0609309212, 1.2071790017, 0.60478591215, -9.9194460883, 0.0, 0.0, 0.0, 1.0480562988, 0.8482556117, -10.025926694
30.4296178818, 1.08303895589, 0.702591628181, -14.0606775585, 1.09292172255, 0.5491527867, -9.8931250397, 0.0, 0.0, 0.0, 1.0217352502, 0.993021379, -10.0995059889
30.4797828197, 1.0877284112, 0.681137628448, -14.0587336061, 1.10727865815, 0.4534398827, -9.89372324535, 0.0, 0.0, 0.0, 0.9667003304, 0.88115692245, -10.0414800409
30.5299320221, 1.06896916907, 0.663396002742, -14.0347789102, 1.2143574695, 0.55692946015, -9.8392865312, 0.0, 0.0, 0.0, 1.12881406155, 0.9643075078, -10.0396854239
30.5801169872, 1.03522002584, 0.679642657322, -14.0178727627, 1.08215402085, 0.45044885445, -9.8057870148, 0.0, 0.0, 0.0, 0.9762716208, 1.02592268975, -10.1013006059
30.6302568913, 1.03351834403, 0.668505447168, -14.0114090936, 0.9308079914, 0.454636294, -9.83270626905, 0.0, 0.0, 0.0, 0.9643075078, 0.9044869428, -9.99900743975
30.680385828, 1.03015432528, 0.661787579329, -13.9923596945, 1.0935199282, 0.5048855686, -9.87218784195, 0.0, 0.0, 0.0, 0.9714859756, 0.90269232585, -9.8691968137
30.7305219173, 1.00121448853, 0.656628097996, -13.9966761712, 1.0803594039, 0.48993042735, -9.81236727695, 0.0, 0.0, 0.0, 0.8925228298, 0.84526458345, -10.0067841132
30.7806580067, 0.981724811788, 0.660580994856, -14.0077012994, 1.03190474625, 0.4917250443, -9.8177511278, 0.0, 0.0, 0.0, 0.9068797654, 0.87996051115, -10.0731849404
30.8308298588, 0.986106173605, 0.653976556318, -14.0517469709, 0.99601240725, 0.43728833015, -9.8691968137, 0.0, 0.0, 0.0, 0.9535398061, 0.89790668065, -10.0366943957
30.8809769154, 1.00694085732, 0.675180405905, -14.0600567088, 1.07138631915, 0.51744788725, -9.8428757651, 0.0, 0.0, 0.0, 0.9080761767, 0.94097748745, -10.0953185494
30.9311089516, 1.01927449752, 0.659261420431, -14.0506165418, 1.0624132344, 0.4989035121, -9.8668039911, 0.0, 0.0, 0.0, 0.9272187575, 0.8685946038, -10.0145607866
30.9812428951, 0.983319839303, 0.676676970615, -14.040659891, 1.09172531125, 0.59282179915, -9.9206424996, 0.0, 0.0, 0.0, 0.83330047045, 0.8721838377, -9.99182897195
31.0313808918, 0.943842002976, 0.679729433034, -14.0298383111, 1.15154587625, 0.5826523031, -9.90449094705, 0.0, 0.0, 0.0, 0.813559684, 0.7716852885, -9.9744810081
31.0815289021, 0.993453989543, 0.697528474681, -14.0368229171, 1.00079805245, 0.63948183985, -9.91286582615, 0.0, 0.0, 0.0, 1.0779665813, 0.90628155975, -10.0390872183
31.131652832, 1.00212357065, 0.692861663161, -14.0460676098, 1.1892328322, 0.54017970195, -9.9194460883, 0.0, 0.0, 0.0, 0.83210405915, 0.89431744675, -10.025926694
31.1817848682, 0.978396586511, 0.699759516616, -14.0220880989, 0.9954142016, 0.4474578262, -9.81057266, 0.0, 0.0, 0.0, 0.9355936366, 1.00199446375, -9.99422179455
31.2319078445, 0.96078397956, 0.716719547201, -14.0196744141, 1.01874422195, 0.5706881901, -9.8500542329, 0.0, 0.0, 0.0, 0.92422772925, 0.9607182739, -10.0767741743
31.2820990086, 0.968769908898, 0.707954983028, -14.0130004235, 1.04147603665, 0.5216353268, -9.7698946758, 0.0, 0.0, 0.0, 0.921236701, 0.87517486595, -10.0235338714
31.3324148655, 0.9564267391, 0.672491154144, -14.0422663413, 1.016949605, 0.586241537, -9.8895358058, 0.0, 0.0, 0.0, 0.90508514845, 0.72681986475, -10.03609619
31.3826079369, 0.925444820813, 0.685943945182, -14.0244173803, 1.0851450491, 0.5778666579, -9.90090171315, 0.0, 0.0, 0.0, 0.77347990545, 0.9140582332, -10.0037930849
31.4330878258, 0.923128507103, 0.702907805451, -14.0257283252, 1.0157531937, 0.57248280705, -9.80638522045, 0.0, 0.0, 0.0, 0.87517486595, 0.9738787982, -10.0941221381
31.483217001, 0.895217517644, 0.700819222877, -14.0227748185, 0.94576313265, 0.51026941945, -9.7603233854, 0.0, 0.0, 0.0, 0.92183490665, 1.0121639598, -10.0755777629
31.5333848, 0.885220679769, 0.655769872462, -14.0376153707, 1.21854490905, 0.4630111731, -9.82911703515, 0.0, 0.0, 0.0, 0.8685946038, 0.8350950874, -10.04985492
31.5836308002, 0.88786845227, 0.675232089891, -14.0410470163, 0.8745766603, 0.5012963347, -9.8309116521, 0.0, 0.0, 0.0, 0.8518448456, 0.9774680321, -10.0707921177
31.63408494, 0.89969249624, 0.657814112771, -14.0229787591, 0.98045906035, 0.43369909625, -9.8572327007, 0.0, 0.0, 0.0, 0.83569329305, 0.82971123655, -9.9481599595
31.6842358112, 0.844462718383, 0.653098318804, -14.0204671597, 0.9619146852, 0.44446679795, -9.8452685877, 0.0, 0.0, 0.0, 0.75912296985, 0.9391828705, -9.9984092341
31.7343888283, 0.832847220704, 0.636780232954, -14.0314029728, 0.909272588, 0.54735816975, -9.8500542329, 0.0, 0.0, 0.0, 0.8111668614, 0.88115692245, -10.0594262104
31.7845549583, 0.90893093542, 0.620696432055, -14.0538570239, 0.99003035075, 0.311066938, -9.89970530185, 0.0, 0.0, 0.0, 0.92303131795, 0.9260223462, -10.0749795573
31.83481884, 0.819848020944, 0.614044436879, -14.0690563517, 0.8721838377, 0.43489550755, -9.91765147135, 0.0, 0.0, 0.0, 0.5539384319, 0.79860454275, -10.061819033
31.884967804, 0.821802734236, 0.637222416794, -14.0570743769, 0.90747797105, 0.4103690759, -9.87338425325, 0.0, 0.0, 0.0, 0.7609175868, 0.84885381735, -10.0348997787
31.935136795, 0.797251109234, 0.644320798056, -14.0523098641, 0.9080761767, 0.5694917788, -9.8763752815, 0.0, 0.0, 0.0, 0.77347990545, 0.9152546445, -10.0522477426
31.9853489399, 0.796366112054, 0.664699829521, -14.0705711389, 0.83569329305, 0.46360937875, -9.86740219675, 0.0, 0.0, 0.0, 0.8590233134, 0.8925228298, -10.1431750014
32.0355379581, 0.843004917545, 0.635935185959, -14.0645948579, 0.9068797654, 0.33439695835, -9.73101130855, 0.0, 0.0, 0.0, 0.8793623055, 0.92063849535, -10.1060862511
32.0857458115, 0.746673353273, 0.64325143776, -14.0733798181, 0.9248259349, 0.44087756405, -9.84227755945, 0.0, 0.0, 0.0, 0.65982083195, 0.8171489179, -10.1539427031
32.1359679699, 0.767931980811, 0.648966342251, -14.0523961695, 0.88594256765, 0.48993042735, -9.81595651085, 0.0, 0.0, 0.0, 0.76989067155, 0.86679998685, -10.0283195166
32.1861708164, 0.738567242836, 0.653730814884, -14.0503489918, 0.9200402897, 0.4043870194, -9.9254281448, 0.0, 0.0, 0.0, 0.65742800935, 0.8183453292, -9.9433743143
32.2363688946, 0.669749692721, 0.671506623621, -14.0176648168, 0.8219345631, 0.41814574935, -9.8141618939, 0.0, 0.0, 0.0, 0.45164526575, 0.801595571, -9.84108114815
32.2866008282, 0.642395472212, 0.758137307792, -14.0891059567, 0.74117680035, 0.57846486355, -10.0169536092, 0.0, 0.0, 0.0, 0.66699929975, 0.87038922075, -10.0809616138
32.3368749619, 0.695962135564, 0.760348189354, -14.115350755, 0.87637127725, 0.6628118602, -10.013962581, 0.0, 0.0, 0.0, 0.7836494015, 0.98883393945, -10.0145607866
32.3871538639, 0.693021142292, 0.735292106512, -14.1164780436, 0.777667345, 0.54855458105, -9.8895358058, 0.0, 0.0, 0.0, 0.66580288845, 0.92303131795, -10.0743813517
32.4373738766, 0.712760442631, 0.697319394027, -14.1212469998, 0.8889335959, 0.47856452, -9.8799645154, 0.0, 0.0, 0.0, 0.72801627605, 0.82133635745, -10.1024970172
32.4875679016, 0.681105047895, 0.66995424177, -14.0552763259, 1.05463656095, 0.49591248385, -9.8021977809, 0.0, 0.0, 0.0, 0.37268211995, 0.71724857435, -9.8847501606
32.5378479958, 0.644103045104, 0.671880441887, -14.01329806, 0.43010986235, 0.5060819799, -9.82193856735, 0.0, 0.0, 0.0, 0.801595571, 1.08933248865, -10.025926694
32.588121891, 0.706599418579, 0.679517172926, -14.0240943601, 0.9248259349, 0.43848474145, -9.87816989845, 0.0, 0.0, 0.0, 0.90867438235, 0.92542414055, -10.0504531256
32.6391818523, 0.665356110907, 0.714216608838, -14.0413019769, 0.9200402897, 0.586241537, -9.87218784195, 0.0, 0.0, 0.0, 0.66341006585, 0.9726823869, -10.0941221381
32.689401865, 0.690459194136, 0.699140249824, -14.0463548105, 0.8231309744, 0.54257252455, -9.7782695549, 0.0, 0.0, 0.0, 0.7345965382, 0.8793623055, -9.99541820585
32.7395968437, 0.655951797219, 0.682084862452, -14.0458387001, 0.765703232, 0.45044885445, -9.84586679335, 0.0, 0.0, 0.0, 0.6269195212, 0.83569329305, -10.0666046782
32.7898159027, 0.693302821971, 0.699453074821, -14.108845398, 0.86560357555, 0.48275195955, -9.84706320465, 0.0, 0.0, 0.0, 0.79381889755, 0.99481599595, -10.1425767957
32.8399899006, 0.69185603066, 0.715714379521, -14.1386778685, 0.77467631675, 0.538385085, -9.83509909165, 0.0, 0.0, 0.0, 0.753739119, 0.9080761767, -10.2006027438
32.8903589249, 0.693652894841, 0.749178479031, -14.1323519062, 0.96729853605, 0.5359922624, -9.89731247925, 0.0, 0.0, 0.0, 0.6771687958, 1.040877831, -10.0887382872
32.940598011, 0.686192006839, 0.739209274118, -14.1247071144, 0.84526458345, 0.538385085, -9.89133042275, 0.0, 0.0, 0.0, 0.65742800935, 0.8985048863, -10.0749795573
32.9907870293, 0.657976074506, 0.706147709051, -14.1207639556, 0.7633104094, 0.5312066172, -9.86979501935, 0.0, 0.0, 0.0, 0.71365934045, 0.7645068207, -10.1156575415
33.0409669876, 0.616723417966, 0.746935975219, -14.0758265919, 0.77228349415, 0.6041877065, -9.86740219675, 0.0, 0.0, 0.0, 0.62392849295, 0.945164927, -10.0025966737
33.0912058353, 0.633774568968, 0.715848892958, -14.0589439327, 0.8757730716, 0.622133876, -9.8632147572, 0.0, 0.0, 0.0, 0.6089733517, 0.7549355303, -10.0432746578
33.141381979, 0.615325260958, 0.712310908216, -14.0887136721, 0.79501530885, 0.39062828945, -9.9194460883, 0.0, 0.0, 0.0, 0.58803615395, 1.0133603711, -10.0905329042
33.1916229725, 0.633259480182, 0.7287586089, -14.0742154836, 0.8650053699, 0.55573304885, -9.8488578216, 0.0, 0.0, 0.0, 0.6520441585, 0.9714859756, -10.0564351822
33.242027998, 0.612256523313, 0.729387498717, -14.076220582, 0.74117680035, 0.6568298037, -9.8273224182, 0.0, 0.0, 0.0, 0.6017948839, 0.84885381735, -10.0731849404
33.2921879292, 0.63705331826, 0.74619431967, -14.0857861356, 0.85124663995, 0.5575276658, -9.91286582615, 0.0, 0.0, 0.0, 0.6855436749, 1.0181460163, -10.037890807
33.3424358368, 0.670424502676, 0.761341385342, -14.0726040766, 0.7920242806, 0.47318066915, -9.8787681041, 0.0, 0.0, 0.0, 0.6436692794, 0.9906285564, -9.96072227815
33.392649889, 0.712238718569, 0.75801434218, -14.0717727616, 0.921236701, 0.4450650036, -9.8309116521, 0.0, 0.0, 0.0, 0.8087740388, 1.1090732751, -10.0594262104
33.4428608418, 0.716710229342, 0.768954288848, -14.0871561027, 0.83090764785, 0.5096712138, -9.88415195495, 0.0, 0.0, 0.0, 0.7573283529, 0.9882357338, -10.0911311099
33.4934248924, 0.720316710601, 0.791422164331, -14.0896835856, 0.9044869428, 0.6544369811, -9.84347397075, 0.0, 0.0, 0.0, 0.69690958225, 0.9068797654, -10.0833544364
33.5436208248, 0.748067767559, 0.72350752781, -14.0483211118, 0.909272588, 0.36909288605, -9.83749191425, 0.0, 0.0, 0.0, 0.8171489179, 0.9032905315, -9.9170532657
33.5937728882, 0.763757761294, 0.705317004749, -14.031732229, 0.8662017812, 0.4019941968, -9.80758163175, 0.0, 0.0, 0.0, 0.7357929495, 0.87158563205, -10.0163554036
33.6438729763, 0.780934581112, 0.72141765899, -14.0509864471, 0.9379864592, 0.5694917788, -9.8895358058, 0.0, 0.0, 0.0, 0.74356962295, 0.7764709337, -10.024132077
33.694038868, 0.810781544608, 0.771179872342, -14.044368215, 1.0301101293, 0.6604190376, -9.7854480227, 0.0, 0.0, 0.0, 0.7549355303, 1.0432706536, -10.0749795573
33.7441978455, 0.825539393202, 0.768987094875, -14.0424943458, 0.95294160045, 0.46121655615, -9.8895358058, 0.0, 0.0, 0.0, 0.8147560953, 0.99003035075, -9.9828558872
33.7943439484, 0.796679254353, 0.741739997719, -14.0223074045, 0.80458659925, 0.66939212235, -9.73818977635, 0.0, 0.0, 0.0, 0.7166503687, 0.7202396026, -10.0797652025
33.8445029259, 0.851789062216, 0.749015991233, -14.0470824479, 0.7740781111, 0.57128639575, -9.91645506005, 0.0, 0.0, 0.0, 0.9559326287, 0.8829515394, -9.9828558872
33.8949458599, 0.862532257528, 0.741680141409, -14.0699156798, 1.18504539265, 0.56650075055, -9.9050891527, 0.0, 0.0, 0.0, 0.7525427077, 0.87996051115, -10.0486585087
33.9451320171, 0.906894713742, 0.718431842284, -14.0176642095, 1.08335043215, 0.5312066172, -9.81057266, 0.0, 0.0, 0.0, 0.8183453292, 0.84885381735, -9.9792666533
33.9953308105, 0.926209277516, 0.705307299857, -14.0431914885, 0.9726823869, 0.526420972, -9.92841917305, 0.0, 0.0, 0.0, 0.98883393945, 0.77587272805, -10.1312108884
34.0455489159, 1.07623922805, 0.709596314654, -13.9928113707, 1.3256237204, 0.4031906081, -9.8297152408, 0.0, 0.0, 0.0, 1.0600204118, 1.1461620254, -9.90209812445
34.0957570076, 0.993769658362, 0.665362342879, -14.0157805371, 1.1318050898, 0.46480579005, -9.8452685877, 0.0, 0.0, 0.0, 0.83688970435, 0.9020941202, -10.0091769358
34.1459980011, 0.964953039663, 0.712630077916, -14.0087137171, 0.9678967417, 0.5240281494, -9.94397251995, 0.0, 0.0, 0.0, 0.8315058535, 0.98524470555, -9.95354381035
34.1963198185, 0.974449832697, 0.697198861395, -14.0450805085, 1.1174481542, 0.46002014485, -9.82792062385, 0.0, 0.0, 0.0, 0.8566304908, 0.95892365695, -9.9792666533
34.2470388412, 0.96931600387, 0.699962793924, -14.032759827, 1.02472627845, 0.4977071008, -9.82433138995, 0.0, 0.0, 0.0, 0.8961120637, 0.87996051115, -9.99661461715
34.2972369194, 1.00338642566, 0.668876580974, -14.0317356292, 1.1150553316, 0.3433700431, -9.8273224182, 0.0, 0.0, 0.0, 0.9355936366, 1.0325029519, -9.99900743975
34.3474879265, 0.987447417749, 0.636951221777, -14.0512202399, 1.06779708525, 0.47437708045, -9.8404829425, 0.0, 0.0, 0.0, 0.90508514845, 0.7465606512, -10.0797652025
34.3976700306, 0.974050899986, 0.635953761603, -14.0568033666, 0.99481599595, 0.30568308715, -9.83629550295, 0.0, 0.0, 0.0, 0.97686982645, 1.0348957745, -10.1659068161
34.4479370117, 0.988706956521, 0.627328797507, -14.0488593033, 0.98404829425, 0.4522434714, -9.86261655155, 0.0, 0.0, 0.0, 0.99960164115, 0.89072821285, -9.99422179455
34.4983739853, 0.98540934028, 0.627021007668, -14.049522787, 0.99242317335, 0.3541377448, -9.81595651085, 0.0, 0.0, 0.0, 0.9224331123, 1.01754781065, -10.0372926013
34.5486409664, 1.03105218086, 0.662806231985, -14.055553148, 1.0839486378, 0.4259224228, -9.7603233854, 0.0, 0.0, 0.0, 0.9355936366, 0.92422772925, -10.0612208274
34.598856926, 1.05392774112, 0.639860278961, -14.0400181841, 1.2071790017, 0.4797609313, -9.84108114815, 0.0, 0.0, 0.0, 0.8745766603, 0.89790668065, -10.0008020567
34.6490240097, 1.04314908382, 0.654568133909, -14.0348035955, 1.00319087505, 0.57367921835, -9.8632147572, 0.0, 0.0, 0.0, 0.9499505722, 0.94576313265, -10.0085787301
34.6992778778, 1.06053249342, 0.616093760487, -14.0326542288, 1.1473584367, 0.5324030285, -9.88654477755, 0.0, 0.0, 0.0, 0.9391828705, 0.78065837325, -10.012167964
34.7497639656, 1.07353719245, 0.621524700227, -14.0223190848, 1.1437692028, 0.3852444386, -9.83390268035, 0.0, 0.0, 0.0, 0.9894321451, 0.97686982645, -10.0384890127
34.8002049923, 1.10104272426, 0.62096410129, -14.0197269121, 1.1449656141, 0.51625147595, -9.7710910871, 0.0, 0.0, 0.0, 1.09052889995, 0.72562345345, -9.99302538325
34.8509759903, 1.09032613532, 0.615335272072, -14.0132230352, 1.09890377905, 0.50069812905, -9.8895358058, 0.0, 0.0, 0.0, 0.9523433948, 0.7345965382, -9.9409814917
34.9014348984, 1.09128707501, 0.644365331165, -14.0192925214, 1.1449656141, 0.6472585133, -9.82193856735, 0.0, 0.0, 0.0, 0.9104689993, 0.86560357555, -10.0420782466
34.9520428181, 1.12005173754, 0.626321784207, -14.0239384011, 1.20059873955, 0.5635097223, -9.86859860805, 0.0, 0.0, 0.0, 1.05822579485, 0.8338986761, -9.9936235889
35.0029788017, 1.14188529367, 0.568281534806, -13.9482571451, 1.40159583795, 0.4139583098, -9.6861458848, 0.0, 0.0, 0.0, 0.9236295236, 0.65264236415, -9.91645506005
35.0531799793, 1.21960808244, 0.612507757144, -13.9759239666, 1.1892328322, 0.53539405675, -9.88774118885, 0.0, 0.0, 0.0, 1.13120688415, 0.84765740605, -10.0905329042
35.1034638882, 1.21163610648, 0.619806574917, -13.9735916617, 1.3112667848, 0.53778687935, -9.8309116521, 0.0, 0.0, 0.0, 1.112662509, 0.8638089586, -9.96909715725
35.1539018154, 1.1696967484, 0.630176090268, -13.9769347653, 1.088734283, 0.5156532703, -9.8213403617, 0.0, 0.0, 0.0, 1.0217352502, 0.9044869428, -9.990034355
35.2044439316, 1.16821998446, 0.631757699334, -13.9911335638, 1.19461668305, 0.3661018578, -9.84586679335, 0.0, 0.0, 0.0, 1.00797652025, 0.92662055185, -9.9649097177
35.2550649643, 1.14969693739, 0.625462843873, -13.9773504693, 1.26879418365, 0.5886343596, -9.6370930215, 0.0, 0.0, 0.0, 0.8207381518, 0.80697942185, -10.1174521584
35.3052318096, 1.21822390385, 0.658249847698, -13.9813018177, 1.2658031554, 0.5048855686, -9.7519485063, 0.0, 0.0, 0.0, 1.10967148075, 0.86919280945, -10.0582297991
35.3554298878, 1.23836499002, 0.644616948862, -13.9817484846, 1.3256237204, 0.37507494255, -9.78724263965, 0.0, 0.0, 0.0, 1.0755737587, 0.9128618219, -10.0175518149
35.4056680202, 1.23939352641, 0.642299532678, -13.9438354966, 1.29990087745, 0.47916272565, -9.8763752815, 0.0, 0.0, 0.0, 1.06899349655, 0.8685946038, -9.8476614103
35.4558489323, 1.25778948855, 0.641291326449, -13.9493054712, 1.2586246876, 0.5539384319, -9.83390268035, 0.0, 0.0, 0.0, 1.10727865815, 0.82971123655, -9.97866844765
35.5060329437, 1.27585377005, 0.671210139092, -13.9765402732, 1.24366954635, 0.4929214556, -9.7663054419, 0.0, 0.0, 0.0, 1.19102744915, 0.89671026935, -10.0660064725
35.5564508438, 1.28253864277, 0.669418172651, -13.9706011191, 1.3004990831, 0.5168496816, -9.81356368825, 0.0, 0.0, 0.0, 1.0372885971, 0.8877371846, -9.97866844765
35.6066348553, 1.28782400918, 0.656843608719, -13.9639396566, 1.2550354537, 0.43010986235, -9.7914300792, 0.0, 0.0, 0.0, 1.1868400096, 0.96969135865, -10.0008020567
35.6568808556, 1.28503954975, 0.636432460911, -13.970419875, 1.2861421475, 0.4235296002, -9.83868832555, 0.0, 0.0, 0.0, 1.0336993632, 0.8781658942, -9.9912307663
35.7070720196, 1.29649415756, 0.623227259529, -13.9725362757, 1.26640136105, 0.39900316855, -9.77527852665, 0.0, 0.0, 0.0, 1.1138589203, 0.8506484343, -10.04985492
35.7573080063, 1.31452827096, 0.652267047403, -14.0130105075, 1.2299108164, 0.5180460929, -9.8273224182, 0.0, 0.0, 0.0, 1.1964113, 0.88833539025, -10.085747259
35.8076050282, 1.27718638856, 0.648500915444, -13.998663597, 1.2729816232, 0.47676990305, -9.83868832555, 0.0, 0.0, 0.0, 1.14676023105, 0.89312103545, -9.95593663295
35.8578679562, 1.27315731207, 0.638897834457, -14.0013031304, 1.23409825595, 0.50428736295, -9.86620578545, 0.0, 0.0, 0.0, 1.00438728635, 0.86560357555, -9.9732845968
35.9081389904, 1.24293884504, 0.651632977823, -14.0050516307, 1.23888390115, 0.3972085516, -9.7651090306, 0.0, 0.0, 0.0, 1.1413763802, 0.90029950325, -10.0408818352
35.9583778381, 1.24817239009, 0.668022782565, -14.0215020984, 1.1892328322, 0.430708068, -9.80638522045, 0.0, 0.0, 0.0, 1.1282158559, 0.90269232585, -10.0630154443
36.0085618496, 1.23269522481, 0.675115763048, -14.0145834612, 1.2071790017, 0.4630111731, -9.7770731436, 0.0, 0.0, 0.0, 1.0671988796, 0.96969135865, -10.0043912906
36.0588228703, 1.23049630042, 0.657604349193, -14.0017382452, 1.1856435983, 0.5204389155, -9.81476009955, 0.0, 0.0, 0.0, 1.0683952909, 0.8003991597, -9.9637133064
36.1090388298, 1.20829000578, 0.61250418335, -13.9884971283, 1.2035897678, 0.406779842, -9.8033941922, 0.0, 0.0, 0.0, 1.08693966605, 0.93499543095, -10.0211410488
36.1592140198, 1.21493062298, 0.639258392795, -14.0055235931, 1.23529466725, 0.51505506465, -9.85184884985, 0.0, 0.0, 0.0, 1.0348957745, 0.8913264185, -9.9708917742
36.2093808651, 1.20055353972, 0.647151607912, -14.004918358, 1.1868400096, 0.49950171775, -9.8404829425, 0.0, 0.0, 0.0, 1.01635139935, 0.8697910151, -10.0211410488
36.2596058846, 1.18785419071, 0.631944626885, -14.0044933825, 1.18265257005, 0.50907300815, -9.8141618939, 0.0, 0.0, 0.0, 1.03669039145, 0.7968099258, -10.0337033674
36.3098669052, 1.14563464891, 0.604067295342, -14.0018136383, 1.17308127965, 0.43369909625, -9.86381296285, 0.0, 0.0, 0.0, 0.8805587168, 0.8410771439, -9.9409814917
36.3602769375, 1.13610078777, 0.610279989539, -14.0098757479, 1.1533404932, 0.44925244315, -9.8356972973, 0.0, 0.0, 0.0, 0.98285188295, 0.87876409985, -10.0402836296
36.4105010033, 1.12688988474, 0.615664164681, -14.013532522, 1.09172531125, 0.3984049629, -9.79202828485, 0.0, 0.0, 0.0, 1.00678010895, 0.8482556117, -10.0283195166
36.4606969357, 1.15200817056, 0.641234720713, -14.0146346001, 1.160518961, 0.5371886737, -9.82193856735, 0.0, 0.0, 0.0, 1.0803594039, 0.90508514845, -9.9756774194
36.5108759403, 1.1514505548, 0.611388191138, -14.0232763482, 1.2035897678, 0.5036891573, -9.86142014025, 0.0, 0.0, 0.0, 0.94456672135, 0.76151579245, -10.0540423596
36.5610609055, 1.15022979088, 0.631673627031, -14.0125361487, 1.1796615418, 0.52941200025, -9.8189475391, 0.0, 0.0, 0.0, 1.0336993632, 0.90149591455, -10.024132077
36.6112718582, 1.13646810744, 0.622044277137, -14.0073168088, 1.1976077113, 0.40378881375, -9.8500542329, 0.0, 0.0, 0.0, 0.9320044027, 0.90747797105, -9.9517491934
36.6615388393, 1.08289222557, 0.607534739095, -13.9959201872, 1.0600204118, 0.41455651545, -9.82074215605, 0.0, 0.0, 0.0, 0.9786644434, 0.80817583315, -9.9625168951
