TIME, IMU1_gyr_x, IMU1_gyr_y, IMU1_gyr_z, IMU1_gyr_raw_x, IMU1_gyr_raw_y, IMU1_gyr_raw_z,IMU2_gyr_x, IMU2_gyr_y,IMU2_gyr_z, IMU2_gyr_raw_x, IMU2_gyr_raw_y, IMU2_gyr_raw_z1.90734863281e-06, 0.0, 0.0, 0.0, 0.0, 0.0, 0.0, 0.0, 0.0, 0.0, 0.0, 0.0, 0.0
0.0101239681244, 0.0, 0.0, 0.0, 0.0, 0.0, 0.0, 0.0, 0.0, 0.0, 0.0, 0.0, 0.0
0.0203490257263, 0.0, 0.0, 0.0, 0.0, 0.0, 0.0, 0.0, 0.0, 0.0, 0.0, 0.0, 0.0
0.0363450050354, 0.0, 0.0, 0.0, 0.0, 0.0, 0.0, 0.0, 0.0, 0.0, 0.0, 0.0, 0.0
0.0506300926208, 0.0, 0.0, 0.0, 0.0, 0.0, 0.0, 0.0, 0.0, 0.0, 0.0, 0.0, 0.0
0.0608010292053, 0.0, 0.0, 0.0, 0.0, 0.0, 0.0, 0.0, 0.0, 0.0, 0.0, 0.0, 0.0
0.0709691047668, -4.4975, 3.75375, 0.70875, -4.4975, 3.75375, 0.70875, -0.42, 1.6275, 0.49, -0.42, 1.6275, 0.49
0.0812880992889, -4.4975, 3.75375, 0.70875, -4.4975, 3.75375, 0.70875, -0.42, 1.6275, 0.49, -0.42, 1.6275, 0.49
0.0914571285248, -4.55, 4.08625, 0.665, -4.55, 4.08625, 0.665, -0.27125, 1.9775, 0.58625, -0.27125, 1.9775, 0.58625
0.101656913757, -4.55, 4.08625, 0.665, -4.55, 4.08625, 0.665, -0.27125, 1.9775, 0.58625, -0.27125, 1.9775, 0.58625
0.111880064011, -4.48875, 3.71875, 0.8575, -4.48875, 3.71875, 0.8575, -0.37625, 1.82, 0.5425, -0.37625, 1.82, 0.5425
0.122083902359, -4.48875, 3.71875, 0.8575, -4.48875, 3.71875, 0.8575, -0.37625, 1.82, 0.5425, -0.37625, 1.82, 0.5425
0.132384061813, -4.97875, 3.955, 0.63, -4.97875, 3.955, 0.63, 0.02625, 1.95125, 0.51625, 0.02625, 1.95125, 0.51625
0.14275598526, -4.97875, 3.955, 0.63, -4.97875, 3.955, 0.63, 0.02625, 1.95125, 0.51625, 0.02625, 1.95125, 0.51625
0.15372300148, -4.66375, 3.92875, 0.86625, -4.66375, 3.92875, 0.86625, 0.0175, 1.8725, 0.4725, 0.0175, 1.8725, 0.4725
0.163901090622, -4.66375, 3.92875, 0.86625, -4.66375, 3.92875, 0.86625, 0.0175, 1.8725, 0.4725, 0.0175, 1.8725, 0.4725
0.174057006836, -4.795, 4.1125, 0.805, -4.795, 4.1125, 0.805, -0.16625, 2.1, 0.6125, -0.16625, 2.1, 0.6125
0.184231042862, -4.795, 4.1125, 0.805, -4.795, 4.1125, 0.805, -0.16625, 2.1, 0.6125, -0.16625, 2.1, 0.6125
0.194422960281, -4.78625, 4.025, 0.74375, -4.78625, 4.025, 0.74375, -0.41125, 2.065, 0.48125, -0.41125, 2.065, 0.48125
0.204608917236, -4.78625, 4.025, 0.74375, -4.78625, 4.025, 0.74375, -0.41125, 2.065, 0.48125, -0.41125, 2.065, 0.48125
0.214769124985, -4.64625, 4.27875, 0.7175, -4.64625, 4.27875, 0.7175, -0.1225, 1.98625, 0.46375, -0.1225, 1.98625, 0.46375
0.224958896637, -4.64625, 4.27875, 0.7175, -4.64625, 4.27875, 0.7175, -0.1225, 1.98625, 0.46375, -0.1225, 1.98625, 0.46375
0.235155105591, -4.83, 3.9725, 0.8225, -4.83, 3.9725, 0.8225, -0.23625, 2.1175, 0.8225, -0.23625, 2.1175, 0.8225
0.245350122452, -4.83, 3.9725, 0.8225, -4.83, 3.9725, 0.8225, -0.23625, 2.1175, 0.8225, -0.23625, 2.1175, 0.8225
0.255568981171, -4.62875, 4.13875, 0.74375, -4.62875, 4.13875, 0.74375, -0.1925, 1.81125, 0.53375, -0.1925, 1.81125, 0.53375
0.265788078308, -4.62875, 4.13875, 0.74375, -4.62875, 4.13875, 0.74375, -0.1925, 1.81125, 0.53375, -0.1925, 1.81125, 0.53375
0.276124000549, -4.59375, 3.92, 0.91, -4.59375, 3.92, 0.91, -0.14, 1.925, 0.48125, -0.14, 1.925, 0.48125
0.286371946335, -4.59375, 3.92, 0.91, -4.59375, 3.92, 0.91, -0.14, 1.925, 0.48125, -0.14, 1.925, 0.48125
0.296570062637, -4.5325, 3.70125, 0.7875, -4.5325, 3.70125, 0.7875, -0.2275, 4.4275, 0.56, -0.2275, 4.4275, 0.56
0.306792974472, -4.5325, 3.70125, 0.7875, -4.5325, 3.70125, 0.7875, -0.2275, 4.4275, 0.56, -0.2275, 4.4275, 0.56
0.316956043243, -4.69, 3.98125, 0.735, -4.69, 3.98125, 0.735, -0.46375, 2.05625, 0.6825, -0.46375, 2.05625, 0.6825
0.327137947083, -4.69, 3.98125, 0.735, -4.69, 3.98125, 0.735, -0.46375, 2.05625, 0.6825, -0.46375, 2.05625, 0.6825
0.337351083755, -4.73375, 4.19125, 0.8925, -4.73375, 4.19125, 0.8925, -0.13125, 1.63625, 0.6125, -0.46375, 2.05625, 0.6825
0.34796500206, -4.73375, 4.19125, 0.8925, -4.73375, 4.19125, 0.8925, -0.13125, 1.63625, 0.6125, -0.13125, 1.63625, 0.6125
0.358129024506, -4.655, 3.94625, 1.00625, -4.655, 3.94625, 1.00625, -0.23625, 1.82, 0.34125, -0.23625, 1.82, 0.34125
0.368287086487, -4.655, 3.94625, 1.00625, -4.655, 3.94625, 1.00625, -0.23625, 1.82, 0.34125, -0.23625, 1.82, 0.34125
0.378519058228, -4.71625, 3.885, 0.5425, -4.71625, 3.885, 0.5425, -0.02625, 2.07375, 0.62125, -0.02625, 2.07375, 0.62125
0.388720989227, -4.71625, 3.885, 0.5425, -4.71625, 3.885, 0.5425, -0.02625, 2.07375, 0.62125, -0.02625, 2.07375, 0.62125
0.398880958557, -4.62, 3.99, 0.6825, -4.62, 3.99, 0.6825, -0.44625, 2.02125, 0.48125, -0.44625, 2.02125, 0.48125
0.409048080444, -4.62, 3.99, 0.6825, -4.62, 3.99, 0.6825, -0.44625, 2.02125, 0.48125, -0.44625, 2.02125, 0.48125
0.419315099716, -4.62, 3.99, 0.6825, -4.62, 3.99, 0.6825, -0.44625, 2.02125, 0.48125, -0.44625, 2.02125, 0.48125
0.429491043091, -4.62875, 3.9375, 0.77875, -4.62875, 3.9375, 0.77875, -0.3325, 2.00375, 0.56875, -0.3325, 2.00375, 0.56875
0.439660072327, -4.2875, 4.01625, 0.77875, -4.2875, 4.01625, 0.77875, -0.16625, 1.8725, 0.63875, -0.16625, 1.8725, 0.63875
0.449985027313, -4.2875, 4.01625, 0.77875, -4.2875, 4.01625, 0.77875, -0.16625, 1.8725, 0.63875, -0.16625, 1.8725, 0.63875
0.460266113281, -4.2875, 4.01625, 0.77875, -4.2875, 4.01625, 0.77875, -0.16625, 1.8725, 0.63875, -0.16625, 1.8725, 0.63875
0.470457077026, -4.71625, 3.955, 0.63875, -4.71625, 3.955, 0.63875, -0.21, 2.17, 0.2625, -0.21, 2.17, 0.2625
0.480633020401, -4.71625, 3.955, 0.63875, -4.71625, 3.955, 0.63875, -0.21, 2.17, 0.2625, -0.21, 2.17, 0.2625
0.490864992142, -4.68125, 4.1125, 0.88375, -4.68125, 4.1125, 0.88375, -0.1575, 1.88125, 0.4025, -0.1575, 1.88125, 0.4025
0.501174926758, -4.68125, 4.1125, 0.88375, -4.68125, 4.1125, 0.88375, -0.1575, 1.88125, 0.4025, -0.1575, 1.88125, 0.4025
0.51135802269, -4.6725, 4.0425, 0.7, -4.6725, 4.0425, 0.7, -0.3325, 2.05625, 0.49, -0.3325, 2.05625, 0.49
0.521527051926, -4.6725, 4.0425, 0.7, -4.6725, 4.0425, 0.7, -0.3325, 2.05625, 0.49, -0.3325, 2.05625, 0.49
0.531785011292, -4.6025, 3.85875, 0.8225, -4.6025, 3.85875, 0.8225, -0.0525, 1.79375, 0.56, -0.0525, 1.79375, 0.56
0.542102098465, -4.6025, 3.85875, 0.8225, -4.6025, 3.85875, 0.8225, -0.0525, 1.79375, 0.56, -0.0525, 1.79375, 0.56
0.55234003067, -4.8825, 4.0775, 0.91875, -4.8825, 4.0775, 0.91875, -0.0525, 2.03875, 0.37625, -0.0525, 1.79375, 0.56
0.562853097916, -4.8825, 4.0775, 0.91875, -4.8825, 4.0775, 0.91875, -0.0525, 2.03875, 0.37625, -0.0525, 2.03875, 0.37625
0.573079109192, -4.8125, 3.99875, 0.7175, -4.8125, 3.99875, 0.7175, -0.23625, 2.09125, 0.32375, -0.23625, 2.09125, 0.32375
0.583359003067, -4.8125, 3.99875, 0.7175, -4.8125, 3.99875, 0.7175, -0.23625, 2.09125, 0.32375, -0.23625, 2.09125, 0.32375
0.593585014343, -4.585, 3.71875, 0.76125, -4.585, 3.71875, 0.76125, -0.1925, 1.93375, 0.56, -0.1925, 1.93375, 0.56
0.603804111481, -4.585, 3.71875, 0.76125, -4.585, 3.71875, 0.76125, -0.1925, 1.93375, 0.56, -0.1925, 1.93375, 0.56
0.614104032516, -4.585, 3.71875, 0.76125, -4.585, 3.71875, 0.76125, -0.1925, 1.93375, 0.56, -0.1925, 1.93375, 0.56
0.624563932419, -4.7775, 4.0775, 0.83125, -4.7775, 4.0775, 0.83125, -0.37625, 1.995, 0.65625, -0.37625, 1.995, 0.65625
0.634737968445, -4.59375, 4.08625, 0.735, -4.59375, 4.08625, 0.735, -0.25375, 1.95125, 0.55125, -0.25375, 1.95125, 0.55125
0.644935131073, -4.59375, 4.08625, 0.735, -4.59375, 4.08625, 0.735, -0.25375, 1.95125, 0.55125, -0.25375, 1.95125, 0.55125
0.655226945877, -4.83, 4.13, 0.6475, -4.83, 4.13, 0.6475, -0.0875, 2.1525, 0.84875, -0.0875, 2.1525, 0.84875
0.66542506218, -4.83, 4.13, 0.6475, -4.83, 4.13, 0.6475, -0.0875, 2.1525, 0.84875, -0.0875, 2.1525, 0.84875
0.675646066666, -4.7075, 3.7625, 0.74375, -4.7075, 3.7625, 0.74375, -0.11375, 1.925, 0.4025, -0.11375, 1.925, 0.4025
0.685971975327, -4.7075, 3.7625, 0.74375, -4.7075, 3.7625, 0.74375, -0.11375, 1.925, 0.4025, -0.11375, 1.925, 0.4025
0.696442127228, -4.445, 3.78875, 0.875, -4.445, 3.78875, 0.875, -0.23625, 2.03875, 0.27125, -0.23625, 2.03875, 0.27125
0.706633090973, -4.445, 3.78875, 0.875, -4.445, 3.78875, 0.875, -0.23625, 2.03875, 0.27125, -0.23625, 2.03875, 0.27125
0.716788053513, -4.6725, 3.7275, 0.67375, -4.6725, 3.7275, 0.67375, -0.2625, 1.9425, 0.385, -0.2625, 1.9425, 0.385
0.726994037628, -4.6725, 3.7275, 0.67375, -4.6725, 3.7275, 0.67375, -0.2625, 1.9425, 0.385, -0.2625, 1.9425, 0.385
0.737154006958, -4.62875, 4.1475, 0.74375, -4.62875, 4.1475, 0.74375, -0.28875, 2.345, 0.55125, -0.28875, 2.345, 0.55125
0.747338056564, -4.62875, 4.1475, 0.74375, -4.62875, 4.1475, 0.74375, -0.28875, 2.345, 0.55125, -0.28875, 2.345, 0.55125
0.757508039474, -4.6375, 4.0425, 0.72625, -4.6375, 4.0425, 0.72625, -0.2625, 1.86375, 0.46375, -0.2625, 1.86375, 0.46375
0.767735004425, -4.6375, 4.0425, 0.72625, -4.6375, 4.0425, 0.72625, -0.2625, 1.86375, 0.46375, -0.2625, 1.86375, 0.46375
0.777880907059, -4.66375, 3.7975, 0.7875, -4.66375, 3.7975, 0.7875, -0.2975, 2.00375, 0.49, -0.2975, 2.00375, 0.49
0.788039922714, -4.66375, 3.7975, 0.7875, -4.66375, 3.7975, 0.7875, -0.2975, 2.00375, 0.49, -0.2975, 2.00375, 0.49
0.798429012299, -4.515, 3.85875, 0.62125, -4.515, 3.85875, 0.62125, -0.30625, 2.0475, 0.6475, -0.30625, 2.0475, 0.6475
0.808731079102, -4.515, 3.85875, 0.62125, -4.515, 3.85875, 0.62125, -0.30625, 2.0475, 0.6475, -0.30625, 2.0475, 0.6475
0.818898916245, -4.62, 4.025, 0.63, -4.62, 4.025, 0.63, -0.1575, 1.88125, 0.5775, -0.1575, 1.88125, 0.5775
0.829059123993, -4.62, 4.025, 0.63, -4.62, 4.025, 0.63, -0.1575, 1.88125, 0.5775, -0.1575, 1.88125, 0.5775
0.839268922806, -4.54125, 4.05125, 0.6825, -4.54125, 4.05125, 0.6825, -0.18375, 1.82875, 0.44625, -0.18375, 1.82875, 0.44625
0.84956407547, -4.54125, 4.05125, 0.6825, -4.54125, 4.05125, 0.6825, -0.18375, 1.82875, 0.44625, -0.18375, 1.82875, 0.44625
0.859745025635, -4.54125, 4.05125, 0.6825, -4.54125, 4.05125, 0.6825, -0.18375, 1.82875, 0.44625, -0.18375, 1.82875, 0.44625
0.869960069656, -4.62, 4.165, 0.63, -4.62, 4.165, 0.63, -0.41125, 1.925, 0.56, -0.41125, 1.925, 0.56
0.880254030228, -4.62, 4.165, 0.63, -4.62, 4.165, 0.63, -0.41125, 1.925, 0.56, -0.41125, 1.925, 0.56
0.890423059464, -4.6725, 3.885, 0.86625, -4.6725, 3.885, 0.86625, -0.2975, 1.9425, 0.55125, -0.2975, 1.9425, 0.55125
0.900640010834, -4.6725, 3.885, 0.86625, -4.6725, 3.885, 0.86625, -0.2975, 1.9425, 0.55125, -0.2975, 1.9425, 0.55125
0.910820007324, -4.50625, 3.92, 0.84875, -4.50625, 3.92, 0.84875, -0.14875, 1.96, 0.27125, -0.14875, 1.96, 0.27125
0.921032905579, -4.50625, 3.92, 0.84875, -4.50625, 3.92, 0.84875, -0.14875, 1.96, 0.27125, -0.14875, 1.96, 0.27125
0.931198120117, -4.47125, 3.73625, 1.0325, -4.47125, 3.73625, 1.0325, -0.21875, 2.0825, 0.665, -0.21875, 2.0825, 0.665
0.941394090652, -4.47125, 3.73625, 1.0325, -4.47125, 3.73625, 1.0325, -0.21875, 2.0825, 0.665, -0.21875, 2.0825, 0.665
0.951548099518, -4.47125, 3.73625, 1.0325, -4.47125, 3.73625, 1.0325, -0.21875, 2.0825, 0.665, -0.21875, 2.0825, 0.665
0.961709022522, -4.48875, 4.03375, 0.56875, -4.48875, 4.03375, 0.56875, -0.1925, 2.065, 0.35875, -0.1925, 2.065, 0.35875
0.972055912018, -4.795, 4.1125, 0.805, -4.48875, 4.03375, 0.56875, -0.595, 1.89875, 0.32375, -0.595, 1.89875, 0.32375
0.982284069061, -4.795, 4.1125, 0.805, -4.795, 4.1125, 0.805, -0.595, 1.89875, 0.32375, -0.595, 1.89875, 0.32375
0.992475032806, -4.795, 4.1125, 0.805, -4.795, 4.1125, 0.805, -0.595, 1.89875, 0.32375, -0.595, 1.89875, 0.32375
1.00271010399, -4.62, 4.0425, 0.63, -4.62, 4.0425, 0.63, -0.2275, 2.05625, 0.3325, -0.2275, 2.05625, 0.3325
1.01323795319, -4.62, 4.0425, 0.63, -4.62, 4.0425, 0.63, -0.2275, 2.05625, 0.3325, -0.2275, 2.05625, 0.3325
1.023416996, -4.54125, 3.92875, 0.86625, -4.54125, 3.92875, 0.86625, 0.035, 1.84625, 0.5075, 0.035, 1.84625, 0.5075
1.03374099731, -4.54125, 3.92875, 0.86625, -4.54125, 3.92875, 0.86625, 0.035, 1.84625, 0.5075, 0.035, 1.84625, 0.5075
1.04413509369, -4.45375, 3.9025, 0.72625, -4.45375, 3.9025, 0.72625, -0.46375, 1.91625, 0.2625, -0.46375, 1.91625, 0.2625
1.05432391167, -4.45375, 3.9025, 0.72625, -4.45375, 3.9025, 0.72625, -0.46375, 1.91625, 0.2625, -0.46375, 1.91625, 0.2625
1.06453108788, -4.71625, 4.025, 0.95375, -4.71625, 4.025, 0.95375, -0.1575, 2.10875, 0.63, -0.1575, 2.10875, 0.63
1.07474803925, -4.71625, 4.025, 0.95375, -4.71625, 4.025, 0.95375, -0.1575, 2.10875, 0.63, -0.1575, 2.10875, 0.63
1.0849199295, -4.41875, 3.87625, 0.8925, -4.41875, 3.87625, 0.8925, -0.455, 1.9425, 0.30625, -0.455, 1.9425, 0.30625
1.09513092041, -4.41875, 3.87625, 0.8925, -4.41875, 3.87625, 0.8925, -0.455, 1.9425, 0.30625, -0.455, 1.9425, 0.30625
1.10542011261, -4.41875, 3.87625, 0.8925, -4.41875, 3.87625, 0.8925, -0.455, 1.9425, 0.30625, -0.455, 1.9425, 0.30625
1.11586999893, -4.4275, 4.1825, 0.77875, -4.4275, 4.1825, 0.77875, -0.28, 1.9425, 0.55125, -0.28, 1.9425, 0.55125
1.12601804733, -4.62, 3.91125, 0.805, -4.62, 3.91125, 0.805, -0.5775, 1.8375, 0.58625, -0.28, 1.9425, 0.55125
1.1367430687, -4.62, 3.91125, 0.805, -4.62, 3.91125, 0.805, -0.5775, 1.8375, 0.58625, -0.5775, 1.8375, 0.58625
1.1469669342, -4.8125, 3.73625, 0.77, -4.62, 3.91125, 0.805, -0.4025, 1.8725, 0.4025, -0.5775, 1.8375, 0.58625
1.1572470665, -4.8125, 3.73625, 0.77, -4.8125, 3.73625, 0.77, -0.4025, 1.8725, 0.4025, -0.4025, 1.8725, 0.4025
1.16741895676, -4.8125, 3.73625, 0.77, -4.8125, 3.73625, 0.77, -0.4025, 1.8725, 0.4025, -0.4025, 1.8725, 0.4025
1.17761611938, -4.4625, 3.71, 0.77, -4.4625, 3.71, 0.77, -0.18375, 2.1525, 0.56875, -0.18375, 2.1525, 0.56875
1.18789601326, -4.4625, 3.71, 0.77, -4.4625, 3.71, 0.77, -0.18375, 2.1525, 0.56875, -0.18375, 2.1525, 0.56875
1.19823002815, -4.62, 3.94625, 0.6825, -4.62, 3.94625, 0.6825, -0.1575, 1.96, 0.27125, -0.1575, 1.96, 0.27125
1.20842504501, -4.62, 3.94625, 0.6825, -4.62, 3.94625, 0.6825, -0.1575, 1.96, 0.27125, -0.1575, 1.96, 0.27125
1.21860790253, -4.61125, 4.095, 0.7175, -4.61125, 4.095, 0.7175, -0.21, 2.02125, 0.5075, -0.21, 2.02125, 0.5075
1.22878503799, -4.61125, 4.095, 0.7175, -4.61125, 4.095, 0.7175, -0.21, 2.02125, 0.5075, -0.21, 2.02125, 0.5075
1.23895192146, -4.66375, 3.99875, 0.8575, -4.66375, 3.99875, 0.8575, -0.25375, 1.82, 0.48125, -0.25375, 1.82, 0.48125
1.24918103218, -4.66375, 3.99875, 0.8575, -4.66375, 3.99875, 0.8575, -0.25375, 1.82, 0.48125, -0.25375, 1.82, 0.48125
1.25943398476, -4.69, 3.9375, 0.9275, -4.69, 3.9375, 0.9275, -0.32375, 1.96, 0.74375, -0.32375, 1.96, 0.74375
1.26963710785, -4.69, 3.9375, 0.9275, -4.69, 3.9375, 0.9275, -0.32375, 1.96, 0.74375, -0.32375, 1.96, 0.74375
1.27978897095, -4.43625, 3.955, 0.875, -4.43625, 3.955, 0.875, -0.1925, 1.86375, 0.37625, -0.1925, 1.86375, 0.37625
1.28998994827, -4.43625, 3.955, 0.875, -4.43625, 3.955, 0.875, -0.1925, 1.86375, 0.37625, -0.1925, 1.86375, 0.37625
1.30024194717, -4.33125, 3.9025, 0.60375, -4.33125, 3.9025, 0.60375, -0.11375, 2.065, 0.55125, -0.11375, 2.065, 0.55125
1.31043410301, -4.33125, 3.9025, 0.60375, -4.33125, 3.9025, 0.60375, -0.11375, 2.065, 0.55125, -0.11375, 2.065, 0.55125
1.32092499733, -4.50625, 3.80625, 0.7875, -4.33125, 3.9025, 0.60375, -0.1575, 2.1525, 0.63, -0.11375, 2.065, 0.55125
1.33152699471, -4.50625, 3.80625, 0.7875, -4.50625, 3.80625, 0.7875, -0.1575, 2.1525, 0.63, -0.1575, 2.1525, 0.63
1.34170508385, -4.54125, 3.91125, 0.84, -4.50625, 3.80625, 0.7875, -0.28875, 2.26625, 0.56, -0.1575, 2.1525, 0.63
1.35199308395, -4.54125, 3.91125, 0.84, -4.54125, 3.91125, 0.84, -0.28875, 2.26625, 0.56, -0.28875, 2.26625, 0.56
1.3621609211, -4.54125, 3.91125, 0.84, -4.54125, 3.91125, 0.84, -0.28875, 2.26625, 0.56, -0.28875, 2.26625, 0.56
1.37233090401, -4.62875, 4.025, 0.77, -4.62875, 4.025, 0.77, -0.2625, 2.17875, 0.42, -0.2625, 2.17875, 0.42
1.38252401352, -4.62875, 4.025, 0.77, -4.62875, 4.025, 0.77, -0.2625, 2.17875, 0.42, -0.2625, 2.17875, 0.42
1.39268803596, -4.48, 3.955, 0.69125, -4.48, 3.955, 0.69125, -0.37625, 1.91625, 0.34125, -0.37625, 1.91625, 0.34125
1.40283989906, -4.48, 3.955, 0.69125, -4.48, 3.955, 0.69125, -0.37625, 1.91625, 0.34125, -0.37625, 1.91625, 0.34125
1.41309499741, -4.7425, 3.9025, 0.77, -4.7425, 3.9025, 0.77, -0.34125, 1.79375, 0.4725, -0.34125, 1.79375, 0.4725
1.42357492447, -4.7425, 3.9025, 0.77, -4.7425, 3.9025, 0.77, -0.34125, 1.79375, 0.4725, -0.34125, 1.79375, 0.4725
1.43376207352, -4.59375, 3.885, 0.665, -4.59375, 3.885, 0.665, -0.11375, 2.065, 0.4725, -0.11375, 2.065, 0.4725
1.44394111633, -4.59375, 3.885, 0.665, -4.59375, 3.885, 0.665, -0.11375, 2.065, 0.4725, -0.11375, 2.065, 0.4725
1.45415401459, -4.40125, 3.75375, 0.7175, -4.40125, 3.75375, 0.7175, -0.27125, 2.09125, 0.37625, -0.27125, 2.09125, 0.37625
1.46440005302, -4.40125, 3.75375, 0.7175, -4.40125, 3.75375, 0.7175, -0.27125, 2.09125, 0.37625, -0.27125, 2.09125, 0.37625
1.4746029377, -4.38375, 3.71875, 0.91875, -4.38375, 3.71875, 0.91875, -0.21875, 1.995, 0.42, -0.21875, 1.995, 0.42
1.48478198051, -4.38375, 3.71875, 0.91875, -4.38375, 3.71875, 0.91875, -0.21875, 1.995, 0.42, -0.21875, 1.995, 0.42
1.49539208412, -4.68125, 3.82375, 0.7175, -4.68125, 3.82375, 0.7175, -0.0525, 2.03, 0.51625, -0.0525, 2.03, 0.51625
1.50562500954, -4.68125, 3.82375, 0.7175, -4.68125, 3.82375, 0.7175, -0.0525, 2.03, 0.51625, -0.0525, 2.03, 0.51625
1.51583600044, -4.71625, 4.10375, 0.93625, -4.71625, 4.10375, 0.93625, -0.455, 2.03, 0.76125, -0.455, 2.03, 0.76125
1.52605199814, -4.71625, 4.10375, 0.93625, -4.71625, 4.10375, 0.93625, -0.455, 2.03, 0.76125, -0.455, 2.03, 0.76125
1.5362200737, -4.59375, 4.06875, 0.88375, -4.59375, 4.06875, 0.88375, -0.2975, 1.91625, 0.77, -0.2975, 1.91625, 0.77
1.54637598991, -4.59375, 4.06875, 0.88375, -4.59375, 4.06875, 0.88375, -0.2975, 1.91625, 0.77, -0.2975, 1.91625, 0.77
1.556620121, -4.6725, 3.89375, 0.6475, -4.59375, 4.06875, 0.88375, -0.3675, 2.02125, 0.7875, -0.2975, 1.91625, 0.77
1.56682610512, -4.6725, 3.89375, 0.6475, -4.6725, 3.89375, 0.6475, -0.3675, 2.02125, 0.7875, -0.3675, 2.02125, 0.7875
1.57704091072, -4.655, 3.94625, 0.8575, -4.655, 3.94625, 0.8575, -0.2275, 2.275, 0.44625, -0.2275, 2.275, 0.44625
1.58722305298, -4.655, 3.94625, 0.8575, -4.655, 3.94625, 0.8575, -0.2275, 2.275, 0.44625, -0.2275, 2.275, 0.44625
1.59740900993, -4.655, 3.94625, 0.8575, -4.655, 3.94625, 0.8575, -0.2275, 2.275, 0.44625, -0.2275, 2.275, 0.44625
1.60759592056, -4.80375, 3.92, 0.7875, -4.80375, 3.92, 0.7875, -0.35, 1.855, 0.4025, -0.35, 1.855, 0.4025
1.61774396896, -4.6725, 3.96375, 0.7525, -4.6725, 3.96375, 0.7525, -0.3675, 1.925, 0.35875, -0.3675, 1.925, 0.35875
1.62793493271, -4.6725, 3.96375, 0.7525, -4.6725, 3.96375, 0.7525, -0.3675, 1.925, 0.35875, -0.3675, 1.925, 0.35875
1.63810896873, -4.48, 3.85875, 0.63875, -4.48, 3.85875, 0.63875, -0.2625, 2.135, 0.49, -0.2625, 2.135, 0.49
1.64832091331, -4.48, 3.85875, 0.63875, -4.48, 3.85875, 0.63875, -0.2625, 2.135, 0.49, -0.2625, 2.135, 0.49
1.65849804878, -4.6025, 3.745, 0.7875, -4.6025, 3.745, 0.7875, -0.1575, 1.9075, 0.14, -0.1575, 1.9075, 0.14
1.66872596741, -4.6025, 3.745, 0.7875, -4.6025, 3.745, 0.7875, -0.1575, 1.9075, 0.14, -0.1575, 1.9075, 0.14
1.67895197868, -4.40125, 3.7625, 0.7525, -4.40125, 3.7625, 0.7525, -0.2975, 1.96875, 0.44625, -0.1575, 1.9075, 0.14
1.68984508514, -4.40125, 3.7625, 0.7525, -4.40125, 3.7625, 0.7525, -0.2975, 1.96875, 0.44625, -0.2975, 1.96875, 0.44625
1.7000169754, -4.69875, 3.9375, 0.81375, -4.69875, 3.9375, 0.81375, -0.3675, 2.19625, 0.37625, -0.3675, 2.19625, 0.37625
1.71013593674, -4.69875, 3.9375, 0.81375, -4.69875, 3.9375, 0.81375, -0.3675, 2.19625, 0.37625, -0.3675, 2.19625, 0.37625
1.72030997276, -4.69875, 3.9375, 0.81375, -4.69875, 3.9375, 0.81375, -0.3675, 2.19625, 0.37625, -0.3675, 2.19625, 0.37625
1.73046398163, -4.75125, 3.87625, 0.77875, -4.75125, 3.87625, 0.77875, -0.42, 1.9775, 0.455, -0.42, 1.9775, 0.455
1.74062490463, -4.8125, 4.1825, 0.88375, -4.75125, 3.87625, 0.77875, -0.21, 1.7325, 0.46375, -0.42, 1.9775, 0.455
1.75121593475, -4.8125, 4.1825, 0.88375, -4.8125, 4.1825, 0.88375, -0.21, 1.7325, 0.46375, -0.21, 1.7325, 0.46375
1.76196694374, -4.62, 3.92, 0.76125, -4.8125, 4.1825, 0.88375, -0.4025, 2.00375, 0.35875, -0.21, 1.7325, 0.46375
1.77211904526, -4.62, 3.92, 0.76125, -4.62, 3.92, 0.76125, -0.4025, 2.00375, 0.35875, -0.4025, 2.00375, 0.35875
1.78233098984, -4.62, 3.92, 0.76125, -4.62, 3.92, 0.76125, -0.4025, 2.00375, 0.35875, -0.4025, 2.00375, 0.35875
1.79276704788, -4.8125, 3.92875, 0.67375, -4.8125, 3.92875, 0.67375, -0.49, 1.91625, 0.455, -0.49, 1.91625, 0.455
1.80296111107, -4.8125, 3.92875, 0.67375, -4.8125, 3.92875, 0.67375, -0.49, 1.91625, 0.455, -0.49, 1.91625, 0.455
1.81311511993, -4.68125, 4.05125, 0.8575, -4.68125, 4.05125, 0.8575, 0.035, 1.9425, 0.37625, 0.035, 1.9425, 0.37625
1.82340097427, -4.68125, 4.05125, 0.8575, -4.68125, 4.05125, 0.8575, 0.035, 1.9425, 0.37625, 0.035, 1.9425, 0.37625
1.83389806747, -4.54125, 3.9025, 1.02375, -4.54125, 3.9025, 1.02375, -0.11375, 1.81125, 0.455, -0.11375, 1.81125, 0.455
1.84405303001, -4.54125, 3.9025, 1.02375, -4.54125, 3.9025, 1.02375, -0.11375, 1.81125, 0.455, -0.11375, 1.81125, 0.455
1.85422110558, -4.54125, 3.9025, 1.02375, -4.54125, 3.9025, 1.02375, -0.11375, 1.81125, 0.455, -0.11375, 1.81125, 0.455
1.86453008652, -4.61125, 3.85875, 0.69125, -4.61125, 3.85875, 0.69125, -0.13125, 1.86375, 0.83125, -0.13125, 1.86375, 0.83125
1.87485408783, -4.62, 3.955, 0.735, -4.62, 3.955, 0.735, -0.21, 2.23125, 0.1575, -0.21, 2.23125, 0.1575
1.88502001762, -4.62, 3.955, 0.735, -4.62, 3.955, 0.735, -0.21, 2.23125, 0.1575, -0.21, 2.23125, 0.1575
1.89517307281, -4.7425, 4.03375, 0.7, -4.7425, 4.03375, 0.7, -0.1925, 1.86375, 0.51625, -0.1925, 1.86375, 0.51625
1.90540409088, -4.7425, 4.03375, 0.7, -4.7425, 4.03375, 0.7, -0.1925, 1.86375, 0.51625, -0.1925, 1.86375, 0.51625
1.91556310654, -4.6375, 3.80625, 0.77, -4.6375, 3.80625, 0.77, -0.35875, 2.0125, 0.56875, -0.35875, 2.0125, 0.56875
1.92574810982, -4.6375, 3.80625, 0.77, -4.6375, 3.80625, 0.77, -0.35875, 2.0125, 0.56875, -0.35875, 2.0125, 0.56875
1.93594408035, -4.80375, 3.7625, 0.735, -4.80375, 3.7625, 0.735, -0.28875, 1.79375, 0.63, -0.28875, 1.79375, 0.63
1.9461710453, -4.80375, 3.7625, 0.735, -4.80375, 3.7625, 0.735, -0.28875, 1.79375, 0.63, -0.28875, 1.79375, 0.63
1.95635199547, -4.83, 3.99, 0.8225, -4.83, 3.99, 0.8225, 0.0175, 1.91625, 0.48125, 0.0175, 1.91625, 0.48125
1.96653103828, -4.83, 3.99, 0.8225, -4.83, 3.99, 0.8225, 0.0175, 1.91625, 0.48125, 0.0175, 1.91625, 0.48125
1.97677993774, -4.865, 3.885, 0.7875, -4.865, 3.885, 0.7875, -0.0525, 1.96, 0.58625, -0.0525, 1.96, 0.58625
1.98721694946, -4.865, 3.885, 0.7875, -4.865, 3.885, 0.7875, -0.0525, 1.96, 0.58625, -0.0525, 1.96, 0.58625
1.99737906456, -4.8125, 3.85, 0.76125, -4.8125, 3.85, 0.76125, -0.37625, 1.925, 0.53375, -0.37625, 1.925, 0.53375
2.00759911537, -4.8125, 3.85, 0.76125, -4.8125, 3.85, 0.76125, -0.37625, 1.925, 0.53375, -0.37625, 1.925, 0.53375
2.01788711548, -4.4275, 3.92, 0.95375, -4.4275, 3.92, 0.95375, -0.07, 1.9075, 0.455, -0.07, 1.9075, 0.455
2.02813410759, -4.4275, 3.92, 0.95375, -4.4275, 3.92, 0.95375, -0.07, 1.9075, 0.455, -0.07, 1.9075, 0.455
2.03829503059, -4.75125, 4.06, 0.7525, -4.75125, 4.06, 0.7525, -0.20125, 2.03875, 0.525, -0.20125, 2.03875, 0.525
2.04852509499, -4.75125, 4.06, 0.7525, -4.75125, 4.06, 0.7525, -0.20125, 2.03875, 0.525, -0.20125, 2.03875, 0.525
2.05890798569, -4.36625, 3.745, 0.67375, -4.36625, 3.745, 0.67375, -0.23625, 1.77625, 0.3675, -0.23625, 1.77625, 0.3675
2.06906795502, -4.36625, 3.745, 0.67375, -4.36625, 3.745, 0.67375, -0.23625, 1.77625, 0.3675, -0.23625, 1.77625, 0.3675
2.07923793793, -4.59375, 3.89375, 0.74375, -4.59375, 3.89375, 0.74375, -0.49875, 2.03875, 0.4725, -0.49875, 2.03875, 0.4725
2.0894780159, -4.59375, 3.89375, 0.74375, -4.59375, 3.89375, 0.74375, -0.49875, 2.03875, 0.4725, -0.49875, 2.03875, 0.4725
2.09967398643, -4.76, 4.03375, 0.7525, -4.76, 4.03375, 0.7525, -0.35875, 2.065, 0.2625, -0.35875, 2.065, 0.2625
2.10985994339, -4.76, 4.03375, 0.7525, -4.76, 4.03375, 0.7525, -0.35875, 2.065, 0.2625, -0.35875, 2.065, 0.2625
2.12007594109, -4.43625, 3.745, 0.77, -4.43625, 3.745, 0.77, -0.4025, 2.02125, 0.58625, -0.4025, 2.02125, 0.58625
2.1302549839, -4.43625, 3.745, 0.77, -4.43625, 3.745, 0.77, -0.4025, 2.02125, 0.58625, -0.4025, 2.02125, 0.58625
2.1404941082, -4.655, 3.96375, 0.70875, -4.655, 3.96375, 0.70875, -0.14, 1.89875, 0.44625, -0.14, 1.89875, 0.44625
2.15083789825, -4.655, 3.96375, 0.70875, -4.655, 3.96375, 0.70875, -0.14, 1.89875, 0.44625, -0.14, 1.89875, 0.44625
2.16101813316, -4.73375, 3.78, 0.79625, -4.73375, 3.78, 0.79625, -0.02625, 2.02125, 0.48125, -0.02625, 2.02125, 0.48125
2.17120599747, -4.73375, 3.78, 0.79625, -4.73375, 3.78, 0.79625, -0.02625, 2.02125, 0.48125, -0.02625, 2.02125, 0.48125
2.1813750267, -4.57625, 3.745, 0.7, -4.57625, 3.745, 0.7, -0.2975, 2.03, 0.16625, -0.2975, 2.03, 0.16625
2.19158911705, -4.57625, 3.745, 0.7, -4.57625, 3.745, 0.7, -0.2975, 2.03, 0.16625, -0.2975, 2.03, 0.16625
2.20195698738, -4.795, 4.12125, 0.98875, -4.795, 4.12125, 0.98875, -0.34125, 1.995, 0.6475, -0.34125, 1.995, 0.6475
2.2123799324, -4.795, 4.12125, 0.98875, -4.795, 4.12125, 0.98875, -0.34125, 1.995, 0.6475, -0.34125, 1.995, 0.6475
2.22252392769, -4.40125, 3.85, 0.7875, -4.40125, 3.85, 0.7875, -0.175, 1.8375, 0.525, -0.175, 1.8375, 0.525
2.23269891739, -4.40125, 3.85, 0.7875, -4.40125, 3.85, 0.7875, -0.175, 1.8375, 0.525, -0.175, 1.8375, 0.525
2.24287104607, -4.66375, 3.70125, 0.74375, -4.66375, 3.70125, 0.74375, -0.2625, 2.05625, 0.595, -0.2625, 2.05625, 0.595
2.25306606293, -4.66375, 3.70125, 0.74375, -4.66375, 3.70125, 0.74375, -0.2625, 2.05625, 0.595, -0.2625, 2.05625, 0.595
2.26321411133, -4.66375, 3.94625, 0.69125, -4.66375, 3.94625, 0.69125, -0.4025, 2.02125, 0.2975, -0.4025, 2.02125, 0.2975
2.27392601967, -4.66375, 3.94625, 0.69125, -4.66375, 3.94625, 0.69125, -0.4025, 2.02125, 0.2975, -0.4025, 2.02125, 0.2975
2.28416991234, -4.6725, 3.605, 0.5775, -4.6725, 3.605, 0.5775, -0.11375, 1.8725, 0.4375, -0.11375, 1.8725, 0.4375
2.29431390762, -4.6725, 3.605, 0.5775, -4.6725, 3.605, 0.5775, -0.11375, 1.8725, 0.4375, -0.11375, 1.8725, 0.4375
2.30448293686, -4.59375, 3.73625, 0.7, -4.6725, 3.605, 0.5775, -0.27125, 1.9425, 0.65625, -0.11375, 1.8725, 0.4375
2.31494808197, -4.59375, 3.73625, 0.7, -4.59375, 3.73625, 0.7, -0.27125, 1.9425, 0.65625, -0.27125, 1.9425, 0.65625
2.32510709763, -4.5675, 4.27, 0.7875, -4.5675, 4.27, 0.7875, -0.28, 2.03, 0.62125, -0.27125, 1.9425, 0.65625
2.3357129097, -4.5675, 4.27, 0.7875, -4.5675, 4.27, 0.7875, -0.28, 2.03, 0.62125, -0.28, 2.03, 0.62125
2.3460021019, -4.55875, 3.6925, 0.8225, -4.5675, 4.27, 0.7875, -0.21, 1.8375, 0.56875, -0.28, 2.03, 0.62125
2.35640907288, -4.55875, 3.6925, 0.8225, -4.55875, 3.6925, 0.8225, -0.21, 1.8375, 0.56875, -0.21, 1.8375, 0.56875
2.36656308174, -4.52375, 3.85, 0.84, -4.52375, 3.85, 0.84, -0.315, 2.0125, 0.28875, -0.315, 2.0125, 0.28875
2.37672901154, -4.52375, 3.85, 0.84, -4.52375, 3.85, 0.84, -0.315, 2.0125, 0.28875, -0.315, 2.0125, 0.28875
2.3869600296, -4.6375, 3.8675, 0.93625, -4.6375, 3.8675, 0.93625, -0.34125, 1.98625, 0.48125, -0.34125, 1.98625, 0.48125
2.39728093147, -4.6375, 3.8675, 0.93625, -4.6375, 3.8675, 0.93625, -0.34125, 1.98625, 0.48125, -0.34125, 1.98625, 0.48125
2.40746092796, -4.6375, 3.8675, 0.93625, -4.7425, 3.70125, 0.7525, -0.1225, 1.77625, 0.42875, -0.34125, 1.98625, 0.48125
2.41857600212, -4.7425, 3.70125, 0.7525, -4.7425, 3.70125, 0.7525, -0.1225, 1.77625, 0.42875, -0.1225, 1.77625, 0.42875
2.42895293236, -4.55875, 3.91125, 0.98875, -4.55875, 3.91125, 0.98875, -0.28, 1.8375, 0.7, -0.1225, 1.77625, 0.42875
2.43934392929, -4.55875, 3.91125, 0.98875, -4.55875, 3.91125, 0.98875, -0.28, 1.8375, 0.7, -0.28, 1.8375, 0.7
2.44952702522, -4.59375, 4.01625, 0.8225, -4.59375, 4.01625, 0.8225, -0.35875, 1.8375, 0.49875, -0.35875, 1.8375, 0.49875
2.45968604088, -4.59375, 4.01625, 0.8225, -4.59375, 4.01625, 0.8225, -0.35875, 1.8375, 0.49875, -0.35875, 1.8375, 0.49875
2.47001099586, -4.59375, 4.01625, 0.8225, -4.59375, 4.01625, 0.8225, -0.35875, 1.8375, 0.49875, -0.35875, 1.8375, 0.49875
2.48034501076, -5.04, 3.815, 0.63875, -5.04, 3.815, 0.63875, -0.28875, 1.75875, 0.455, -0.28875, 1.75875, 0.455
2.49055504799, -4.7775, 3.64, 0.8225, -5.04, 3.815, 0.63875, 0.11375, 1.82, 0.56, -0.28875, 1.75875, 0.455
2.50122904778, -4.7775, 3.64, 0.8225, -4.7775, 3.64, 0.8225, 0.11375, 1.82, 0.56, 0.11375, 1.82, 0.56
2.51157212257, -4.445, 3.7625, 0.84, -4.445, 3.7625, 0.84, -0.14875, 1.75, 0.63, -0.14875, 1.75, 0.63
2.52186703682, -4.445, 3.7625, 0.84, -4.445, 3.7625, 0.84, -0.14875, 1.75, 0.63, -0.14875, 1.75, 0.63
2.53201198578, -4.445, 3.7625, 0.84, -4.445, 3.7625, 0.84, -0.14875, 1.75, 0.63, -0.14875, 1.75, 0.63
2.54228997231, -4.64625, 4.0075, 0.7525, -4.64625, 4.0075, 0.7525, -0.525, 2.0125, 0.525, -0.525, 2.0125, 0.525
2.55267500877, -4.64625, 4.0075, 0.7525, -4.64625, 4.0075, 0.7525, -0.525, 2.0125, 0.525, -0.525, 2.0125, 0.525
2.5628631115, -4.64625, 4.0075, 0.7525, -4.64625, 4.0075, 0.7525, -0.525, 2.0125, 0.525, -0.525, 2.0125, 0.525
2.57313299179, -4.4975, 3.9725, 0.81375, -4.4975, 3.9725, 0.81375, -0.37625, 2.0125, 0.42, -0.37625, 2.0125, 0.42
2.58349895477, -4.4975, 3.9725, 0.81375, -4.4975, 3.9725, 0.81375, -0.37625, 2.0125, 0.42, -0.37625, 2.0125, 0.42
2.59368610382, -4.585, 3.8675, 0.8575, -4.585, 3.8675, 0.8575, -0.0175, 2.03875, 0.51625, -0.0175, 2.03875, 0.51625
2.60387706757, -4.585, 3.8675, 0.8575, -4.585, 3.8675, 0.8575, -0.0175, 2.03875, 0.51625, -0.0175, 2.03875, 0.51625
2.61405801773, -4.4975, 3.885, 0.63, -4.4975, 3.885, 0.63, -0.35875, 1.75, 0.56, -0.35875, 1.75, 0.56
2.62426400185, -4.4975, 3.885, 0.63, -4.4975, 3.885, 0.63, -0.35875, 1.75, 0.56, -0.35875, 1.75, 0.56
2.63443899155, -4.64625, 3.77125, 0.7875, -4.64625, 3.77125, 0.7875, -0.25375, 1.88125, 0.20125, -0.25375, 1.88125, 0.20125
2.64466190338, -4.64625, 3.77125, 0.7875, -4.64625, 3.77125, 0.7875, -0.25375, 1.88125, 0.20125, -0.25375, 1.88125, 0.20125
2.65484690666, -4.64625, 3.77125, 0.7875, -4.64625, 3.77125, 0.7875, -0.25375, 1.88125, 0.20125, -0.25375, 1.88125, 0.20125
2.66506791115, -4.83, 4.0075, 0.6125, -4.83, 4.0075, 0.6125, -0.35875, 1.67125, 0.32375, -0.35875, 1.67125, 0.32375
2.67526602745, -4.66375, 3.9725, 0.8925, -4.66375, 3.9725, 0.8925, -0.21875, 1.75, 0.4725, -0.21875, 1.75, 0.4725
2.68586397171, -4.66375, 3.9725, 0.8925, -4.66375, 3.9725, 0.8925, -0.21875, 1.75, 0.4725, -0.21875, 1.75, 0.4725
2.69607210159, -4.59375, 4.05125, 0.77, -4.59375, 4.05125, 0.77, -0.30625, 1.7675, 0.6475, -0.21875, 1.75, 0.4725
2.7064640522, -4.59375, 4.05125, 0.77, -4.59375, 4.05125, 0.77, -0.30625, 1.7675, 0.6475, -0.30625, 1.7675, 0.6475
2.71662712097, -4.59375, 4.05125, 0.77, -4.59375, 4.05125, 0.77, -0.30625, 1.7675, 0.6475, -0.30625, 1.7675, 0.6475
2.72680902481, -4.83, 4.05125, 0.74375, -4.83, 4.05125, 0.74375, -0.14875, 1.91625, 0.37625, -0.14875, 1.91625, 0.37625
2.73710298538, -4.83, 4.05125, 0.74375, -4.83, 4.05125, 0.74375, -0.14875, 1.91625, 0.37625, -0.14875, 1.91625, 0.37625
2.74729609489, -4.83, 3.885, 0.56875, -4.83, 3.885, 0.56875, 0.0, 1.96, 0.455, 0.0, 1.96, 0.455
2.75746202469, -4.83, 3.885, 0.56875, -4.83, 3.885, 0.56875, 0.0, 1.96, 0.455, 0.0, 1.96, 0.455
2.76765203476, -4.6375, 3.82375, 0.805, -4.6375, 3.82375, 0.805, -0.175, 1.82, 0.46375, -0.175, 1.82, 0.46375
2.7782599926, -4.6375, 3.82375, 0.805, -4.6375, 3.82375, 0.805, -0.175, 1.82, 0.46375, -0.175, 1.82, 0.46375
2.78845191002, -4.64625, 4.05125, 0.8225, -4.64625, 4.05125, 0.8225, -0.20125, 2.05625, 0.4025, -0.20125, 2.05625, 0.4025
2.79863095284, -4.64625, 4.05125, 0.8225, -4.64625, 4.05125, 0.8225, -0.20125, 2.05625, 0.4025, -0.20125, 2.05625, 0.4025
2.808852911, -4.64625, 4.05125, 0.8225, -4.64625, 4.05125, 0.8225, -0.20125, 2.05625, 0.4025, -0.20125, 2.05625, 0.4025
2.81911802292, -4.61125, 4.01625, 0.67375, -4.61125, 4.01625, 0.67375, -0.1225, 1.84625, 0.28, -0.1225, 1.84625, 0.28
2.82928109169, -4.61125, 4.01625, 0.67375, -4.61125, 4.01625, 0.67375, -0.1225, 1.84625, 0.28, -0.1225, 1.84625, 0.28
2.83947610855, -4.41875, 3.66625, 0.735, -4.41875, 3.66625, 0.735, -0.42875, 1.95125, 0.30625, -0.42875, 1.95125, 0.30625
2.84966206551, -4.41875, 3.66625, 0.735, -4.41875, 3.66625, 0.735, -0.42875, 1.95125, 0.30625, -0.42875, 1.95125, 0.30625
2.85983490944, -4.655, 4.2175, 0.69125, -4.655, 4.2175, 0.69125, -0.21, 1.7325, 0.77875, -0.21, 1.7325, 0.77875
2.87003207207, -4.655, 4.2175, 0.69125, -4.655, 4.2175, 0.69125, -0.21, 1.7325, 0.77875, -0.21, 1.7325, 0.77875
2.88022899628, -4.4975, 4.13875, 0.69125, -4.4975, 4.13875, 0.69125, -0.21875, 1.91625, 0.455, -0.21875, 1.91625, 0.455
2.8904800415, -4.4975, 4.13875, 0.69125, -4.4975, 4.13875, 0.69125, -0.21875, 1.91625, 0.455, -0.21875, 1.91625, 0.455
2.90063595772, -4.4975, 4.13875, 0.69125, -4.4975, 4.13875, 0.69125, -0.21875, 1.91625, 0.455, -0.21875, 1.91625, 0.455
2.9108300209, -4.4275, 3.66625, 0.77875, -4.4275, 3.66625, 0.77875, -0.28, 2.10875, 0.62125, -0.28, 2.10875, 0.62125
2.92102193832, -4.52375, 3.9725, 0.81375, -4.52375, 3.9725, 0.81375, -0.3675, 1.91625, 0.32375, -0.3675, 1.91625, 0.32375
2.9313120842, -4.52375, 3.9725, 0.81375, -4.52375, 3.9725, 0.81375, -0.3675, 1.91625, 0.32375, -0.3675, 1.91625, 0.32375
2.94150400162, -4.7425, 4.13, 0.72625, -4.7425, 4.13, 0.72625, -0.13125, 1.82, 0.4725, -0.13125, 1.82, 0.4725
2.95165300369, -4.7425, 4.13, 0.72625, -4.7425, 4.13, 0.72625, -0.13125, 1.82, 0.4725, -0.13125, 1.82, 0.4725
2.96192908287, -4.7425, 4.13, 0.72625, -4.7425, 4.13, 0.72625, -0.13125, 1.82, 0.4725, -0.13125, 1.82, 0.4725
2.97224497795, -4.655, 3.78875, 0.84875, -4.655, 3.78875, 0.84875, -0.30625, 2.03875, 0.37625, -0.30625, 2.03875, 0.37625
2.98241591454, -4.655, 3.78875, 0.84875, -4.655, 3.78875, 0.84875, -0.30625, 2.03875, 0.37625, -0.30625, 2.03875, 0.37625
2.99260497093, -4.655, 3.6925, 0.67375, -4.655, 3.6925, 0.67375, -0.23625, 1.98625, 0.4725, -0.23625, 1.98625, 0.4725
3.00285196304, -4.655, 3.6925, 0.67375, -4.655, 3.6925, 0.67375, -0.23625, 1.98625, 0.4725, -0.23625, 1.98625, 0.4725
3.01304507256, -4.50625, 3.94625, 0.76125, -4.50625, 3.94625, 0.76125, -0.34125, 2.16125, 0.42, -0.34125, 2.16125, 0.42
3.02323794365, -4.50625, 3.94625, 0.76125, -4.50625, 3.94625, 0.76125, -0.34125, 2.16125, 0.42, -0.34125, 2.16125, 0.42
3.03355503082, -4.7425, 3.9375, 0.8925, -4.7425, 3.9375, 0.8925, -0.5075, 1.84625, 0.5775, -0.5075, 1.84625, 0.5775
3.04404401779, -4.7425, 3.9375, 0.8925, -4.7425, 3.9375, 0.8925, -0.5075, 1.84625, 0.5775, -0.5075, 1.84625, 0.5775
3.05423903465, -4.61125, 3.92875, 0.81375, -4.61125, 3.92875, 0.81375, -0.2625, 1.9775, 0.55125, -0.2625, 1.9775, 0.55125
3.06444501877, -4.61125, 3.92875, 0.81375, -4.61125, 3.92875, 0.81375, -0.2625, 1.9775, 0.55125, -0.2625, 1.9775, 0.55125
3.074655056, -4.61125, 3.99875, 0.7175, -4.61125, 3.99875, 0.7175, -0.21875, 2.03, 0.42875, -0.21875, 2.03, 0.42875
3.08481907845, -4.61125, 3.99875, 0.7175, -4.61125, 3.99875, 0.7175, -0.21875, 2.03, 0.42875, -0.21875, 2.03, 0.42875
3.09497499466, -4.80375, 3.6575, 0.7875, -4.80375, 3.6575, 0.7875, -0.1575, 2.17, 0.385, -0.1575, 2.17, 0.385
3.10524392128, -4.80375, 3.6575, 0.7875, -4.80375, 3.6575, 0.7875, -0.1575, 2.17, 0.385, -0.1575, 2.17, 0.385
3.11556005478, -4.68125, 4.0075, 0.875, -4.68125, 4.0075, 0.875, -0.18375, 1.89, 0.5775, -0.18375, 1.89, 0.5775
3.12570095062, -4.68125, 4.0075, 0.875, -4.68125, 4.0075, 0.875, -0.18375, 1.89, 0.5775, -0.18375, 1.89, 0.5775
3.13584208488, -4.68125, 3.87625, 0.74375, -4.68125, 3.87625, 0.74375, -0.1575, 1.79375, 0.6125, -0.1575, 1.79375, 0.6125
3.14609909058, -4.68125, 3.87625, 0.74375, -4.68125, 3.87625, 0.74375, -0.1575, 1.79375, 0.6125, -0.1575, 1.79375, 0.6125
3.15645694733, -4.515, 4.025, 0.79625, -4.515, 4.025, 0.79625, -0.105, 2.0125, 0.46375, -0.105, 2.0125, 0.46375
3.16667103767, -4.515, 4.025, 0.79625, -4.515, 4.025, 0.79625, -0.105, 2.0125, 0.46375, -0.105, 2.0125, 0.46375
3.17687702179, -4.64625, 3.7625, 0.97125, -4.64625, 3.7625, 0.97125, -0.14875, 1.82875, 0.7175, -0.14875, 1.82875, 0.7175
3.18708491325, -4.64625, 3.7625, 0.97125, -4.64625, 3.7625, 0.97125, -0.14875, 1.82875, 0.7175, -0.14875, 1.82875, 0.7175
3.19730710983, -4.69875, 3.9025, 0.7875, -4.69875, 3.9025, 0.7875, -0.1225, 2.05625, 0.51625, -0.1225, 2.05625, 0.51625
3.20749497414, -4.69875, 3.9025, 0.7875, -4.69875, 3.9025, 0.7875, -0.1225, 2.05625, 0.51625, -0.1225, 2.05625, 0.51625
3.21765208244, -4.68125, 3.89375, 0.8925, -4.68125, 3.89375, 0.8925, -0.1925, 2.1875, 0.5425, -0.1925, 2.1875, 0.5425
3.22789907455, -4.68125, 3.89375, 0.8925, -4.68125, 3.89375, 0.8925, -0.1925, 2.1875, 0.5425, -0.1925, 2.1875, 0.5425
3.23810696602, -4.83, 4.08625, 0.8575, -4.83, 4.08625, 0.8575, -0.245, 1.8725, 0.35875, -0.245, 1.8725, 0.35875
3.24825406075, -4.83, 4.08625, 0.8575, -4.83, 4.08625, 0.8575, -0.245, 1.8725, 0.35875, -0.245, 1.8725, 0.35875
3.2584939003, -4.73375, 4.13, 0.945, -4.73375, 4.13, 0.945, -0.37625, 2.03875, 0.28, -0.37625, 2.03875, 0.28
3.26883792877, -4.73375, 4.13, 0.945, -4.73375, 4.13, 0.945, -0.37625, 2.03875, 0.28, -0.37625, 2.03875, 0.28
3.27898406982, -4.66375, 3.745, 0.805, -4.66375, 3.745, 0.805, -0.32375, 1.81125, 0.55125, -0.32375, 1.81125, 0.55125
3.28913807869, -4.66375, 3.745, 0.805, -4.66375, 3.745, 0.805, -0.32375, 1.81125, 0.55125, -0.32375, 1.81125, 0.55125
3.29932498932, -4.6375, 3.9025, 0.91875, -4.6375, 3.9025, 0.91875, -0.455, 2.02125, 0.72625, -0.455, 2.02125, 0.72625
3.30945301056, -4.6375, 3.9025, 0.91875, -4.6375, 3.9025, 0.91875, -0.455, 2.02125, 0.72625, -0.455, 2.02125, 0.72625
3.31960892677, -4.61125, 3.955, 0.67375, -4.61125, 3.955, 0.67375, -0.07875, 1.77625, 0.2975, -0.07875, 1.77625, 0.2975
3.32980489731, -4.61125, 3.955, 0.67375, -4.61125, 3.955, 0.67375, -0.07875, 1.77625, 0.2975, -0.07875, 1.77625, 0.2975
3.34008407593, -4.5325, 3.9025, 0.7175, -4.5325, 3.9025, 0.7175, -0.3325, 1.995, 0.18375, -0.3325, 1.995, 0.18375
3.35025596619, -4.5325, 3.9025, 0.7175, -4.5325, 3.9025, 0.7175, -0.3325, 1.995, 0.18375, -0.3325, 1.995, 0.18375
3.36424803734, -4.55875, 3.7275, 0.84, -4.55875, 3.7275, 0.84, 0.00875, 1.925, 0.41125, 0.00875, 1.925, 0.41125
3.37445497513, -4.55875, 3.7275, 0.84, -4.55875, 3.7275, 0.84, 0.00875, 1.925, 0.41125, 0.00875, 1.925, 0.41125
3.38466191292, -4.59375, 3.8675, 0.735, -4.59375, 3.8675, 0.735, -0.245, 1.8725, 0.3675, -0.245, 1.8725, 0.3675
3.39482998848, -4.59375, 3.8675, 0.735, -4.59375, 3.8675, 0.735, -0.245, 1.8725, 0.3675, -0.245, 1.8725, 0.3675
3.40527391434, -4.795, 3.84125, 0.8225, -4.59375, 3.8675, 0.735, -0.2275, 1.9075, 0.385, -0.245, 1.8725, 0.3675
3.41597294807, -4.795, 3.84125, 0.8225, -4.795, 3.84125, 0.8225, -0.2275, 1.9075, 0.385, -0.2275, 1.9075, 0.385
3.42614793777, -4.6725, 4.03375, 0.97125, -4.6725, 4.03375, 0.97125, -0.27125, 1.4175, 0.56, -0.27125, 1.4175, 0.56
3.43631911278, -4.6725, 4.03375, 0.97125, -4.6725, 4.03375, 0.97125, -0.27125, 1.4175, 0.56, -0.27125, 1.4175, 0.56
3.44653606415, -4.865, 3.8675, 0.805, -4.865, 3.8675, 0.805, -0.245, 2.19625, 0.46375, -0.245, 2.19625, 0.46375
3.45687007904, -4.865, 3.8675, 0.805, -4.865, 3.8675, 0.805, -0.245, 2.19625, 0.46375, -0.245, 2.19625, 0.46375
3.4670290947, -4.71625, 3.78875, 0.81375, -4.71625, 3.78875, 0.81375, -0.28875, 1.84625, 0.5075, -0.28875, 1.84625, 0.5075
3.4771900177, -4.71625, 3.78875, 0.81375, -4.71625, 3.78875, 0.81375, -0.28875, 1.84625, 0.5075, -0.28875, 1.84625, 0.5075
3.48746800423, -4.71625, 3.78875, 0.81375, -4.71625, 3.78875, 0.81375, -0.28875, 1.84625, 0.5075, -0.28875, 1.84625, 0.5075
3.49768900871, -4.73375, 3.885, 0.9275, -4.73375, 3.885, 0.9275, -0.04375, 1.9075, 0.49, -0.04375, 1.9075, 0.49
3.50786590576, -4.305, 3.64, 0.79625, -4.305, 3.64, 0.79625, -0.28875, 1.715, 0.42, -0.28875, 1.715, 0.42
3.51804208755, -4.305, 3.64, 0.79625, -4.305, 3.64, 0.79625, -0.28875, 1.715, 0.42, -0.28875, 1.715, 0.42
3.52838993073, -4.305, 3.64, 0.79625, -4.305, 3.64, 0.79625, 0.0525, 1.98625, 0.5425, -0.28875, 1.715, 0.42
3.53914999962, -4.61125, 3.6925, 0.90125, -4.61125, 3.6925, 0.90125, 0.0525, 1.98625, 0.5425, 0.0525, 1.98625, 0.5425
3.54929590225, -4.61125, 3.6925, 0.90125, -4.61125, 3.6925, 0.90125, 0.0525, 1.98625, 0.5425, 0.0525, 1.98625, 0.5425
3.55947399139, -4.62875, 3.8325, 0.9625, -4.62875, 3.8325, 0.9625, 0.00875, 2.135, 0.34125, 0.00875, 2.135, 0.34125
3.56965613365, -4.62875, 3.8325, 0.9625, -4.62875, 3.8325, 0.9625, 0.00875, 2.135, 0.34125, 0.00875, 2.135, 0.34125
3.57981491089, -4.75125, 4.1125, 0.91, -4.75125, 4.1125, 0.91, -0.49, 1.96875, 0.5775, -0.49, 1.96875, 0.5775
3.59017896652, -4.66375, 3.71875, 0.7875, -4.66375, 3.71875, 0.7875, -0.49, 1.96875, 0.5775, -0.49, 1.96875, 0.5775
3.60037708282, -4.66375, 3.71875, 0.7875, -4.66375, 3.71875, 0.7875, -0.37625, 1.77625, 0.51625, -0.37625, 1.77625, 0.51625
3.61059212685, -4.66375, 3.71875, 0.7875, -4.66375, 3.71875, 0.7875, -0.37625, 1.77625, 0.51625, -0.37625, 1.77625, 0.51625
3.6208190918, -4.62, 4.025, 0.63875, -4.62, 4.025, 0.63875, -0.315, 2.16125, 0.315, -0.315, 2.16125, 0.315
3.63099193573, -4.64625, 3.87625, 0.97125, -4.64625, 3.87625, 0.97125, -0.20125, 2.21375, 0.7, -0.20125, 2.21375, 0.7
3.64125108719, -4.64625, 3.87625, 0.97125, -4.64625, 3.87625, 0.97125, -0.20125, 2.21375, 0.7, -0.20125, 2.21375, 0.7
3.65172696114, -4.71625, 3.92, 0.72625, -4.71625, 3.92, 0.72625, -0.00875, 2.05625, 0.53375, -0.00875, 2.05625, 0.53375
3.6618680954, -4.71625, 3.92, 0.72625, -4.71625, 3.92, 0.72625, -0.00875, 2.05625, 0.53375, -0.00875, 2.05625, 0.53375
3.67206406593, -4.71625, 3.92, 0.72625, -4.71625, 3.92, 0.72625, -0.00875, 2.05625, 0.53375, -0.00875, 2.05625, 0.53375
3.68231797218, -4.68125, 3.885, 0.90125, -4.68125, 3.885, 0.90125, -0.37625, 1.95125, 0.455, -0.37625, 1.95125, 0.455
3.69260191917, -4.41, 3.6225, 0.875, -4.41, 3.6225, 0.875, 0.0, 2.05625, 0.2625, 0.0, 2.05625, 0.2625
3.70277190208, -4.41, 3.6225, 0.875, -4.41, 3.6225, 0.875, 0.0, 2.05625, 0.2625, 0.0, 2.05625, 0.2625
3.7129740715, -4.41, 3.6225, 0.875, -4.41, 3.6225, 0.875, 0.0, 2.05625, 0.2625, 0.0, 2.05625, 0.2625
3.7232170105, -4.9525, 3.87625, 0.6475, -4.9525, 3.87625, 0.6475, -0.2275, 1.96875, 0.3675, -0.2275, 1.96875, 0.3675
3.73341798782, -4.48875, 3.94625, 0.86625, -4.48875, 3.94625, 0.86625, -0.28, 1.9425, 0.51625, -0.28, 1.9425, 0.51625
3.74356102943, -4.48875, 3.94625, 0.86625, -4.48875, 3.94625, 0.86625, -0.28, 1.9425, 0.51625, -0.28, 1.9425, 0.51625
3.75377893448, -4.62875, 4.06, 0.90125, -4.62875, 4.06, 0.90125, -0.20125, 2.0475, 0.4375, -0.20125, 2.0475, 0.4375
3.76399993896, -4.62875, 4.06, 0.90125, -4.62875, 4.06, 0.90125, -0.20125, 2.0475, 0.4375, -0.20125, 2.0475, 0.4375
3.77417802811, -4.66375, 4.06875, 0.76125, -4.66375, 4.06875, 0.76125, -0.25375, 2.03, 0.5075, -0.25375, 2.03, 0.5075
3.78439593315, -4.66375, 4.06875, 0.76125, -4.66375, 4.06875, 0.76125, -0.25375, 2.03, 0.5075, -0.25375, 2.03, 0.5075
3.79461097717, -4.71625, 3.87625, 0.875, -4.71625, 3.87625, 0.875, -0.09625, 1.9775, 0.55125, -0.09625, 1.9775, 0.55125
3.80495095253, -4.71625, 3.87625, 0.875, -4.71625, 3.87625, 0.875, -0.09625, 1.9775, 0.55125, -0.09625, 1.9775, 0.55125
3.8151640892, -4.5675, 3.955, 0.67375, -4.5675, 3.955, 0.67375, -0.4725, 2.135, 0.49, -0.4725, 2.135, 0.49
3.82540297508, -4.5675, 3.955, 0.67375, -4.5675, 3.955, 0.67375, -0.4725, 2.135, 0.49, -0.4725, 2.135, 0.49
3.83582305908, -4.5675, 4.15625, 0.79625, -4.5675, 4.15625, 0.79625, -0.175, 1.96, 0.3675, -0.175, 1.96, 0.3675
3.84596800804, -4.5675, 4.15625, 0.79625, -4.5675, 4.15625, 0.79625, -0.175, 1.96, 0.3675, -0.175, 1.96, 0.3675
3.85612607002, -4.6375, 3.99875, 0.90125, -4.6375, 3.99875, 0.90125, -0.2625, 1.7325, 0.665, -0.2625, 1.7325, 0.665
3.86635398865, -4.6375, 3.99875, 0.90125, -4.6375, 3.99875, 0.90125, -0.2625, 1.7325, 0.665, -0.2625, 1.7325, 0.665
3.87666106224, -4.55, 3.89375, 1.0325, -4.55, 3.89375, 1.0325, -0.2625, 1.9075, 0.35875, -0.2625, 1.9075, 0.35875
3.88682889938, -4.55, 3.89375, 1.0325, -4.55, 3.89375, 1.0325, -0.2625, 1.9075, 0.35875, -0.2625, 1.9075, 0.35875
3.8969669342, -4.45375, 3.91125, 0.6125, -4.45375, 3.91125, 0.6125, -0.09625, 1.96, 0.67375, -0.09625, 1.96, 0.67375
3.90716600418, -4.45375, 3.91125, 0.6125, -4.45375, 3.91125, 0.6125, -0.09625, 1.96, 0.67375, -0.09625, 1.96, 0.67375
3.9173719883, -4.445, 3.955, 0.69125, -4.445, 3.955, 0.69125, -0.32375, 2.00375, 0.4025, -0.32375, 2.00375, 0.4025
3.92751002312, -4.445, 3.955, 0.69125, -4.445, 3.955, 0.69125, -0.32375, 2.00375, 0.4025, -0.32375, 2.00375, 0.4025
3.93768405914, -4.5675, 3.9375, 0.735, -4.5675, 3.9375, 0.735, -0.42875, 2.205, 0.46375, -0.42875, 2.205, 0.46375
3.94792604446, -4.5675, 3.9375, 0.735, -4.5675, 3.9375, 0.735, -0.42875, 2.205, 0.46375, -0.42875, 2.205, 0.46375
3.95820212364, -4.7075, 4.12125, 0.76125, -4.7075, 4.12125, 0.76125, -0.175, 1.925, 0.42, -0.175, 1.925, 0.42
3.96839189529, -4.7075, 4.12125, 0.76125, -4.7075, 4.12125, 0.76125, -0.175, 1.925, 0.42, -0.175, 1.925, 0.42
3.97863101959, -4.69, 4.03375, 0.805, -4.69, 4.03375, 0.805, -0.385, 1.88125, 0.35, -0.385, 1.88125, 0.35
3.98885703087, -4.69, 4.03375, 0.805, -4.69, 4.03375, 0.805, -0.385, 1.88125, 0.35, -0.385, 1.88125, 0.35
3.99911594391, -4.69875, 3.9375, 0.9975, -4.69875, 3.9375, 0.9975, -0.25375, 1.995, 0.44625, -0.25375, 1.995, 0.44625
4.00931811333, -4.69875, 3.9375, 0.9975, -4.69875, 3.9375, 0.9975, -0.25375, 1.995, 0.44625, -0.25375, 1.995, 0.44625
4.01951694489, -4.55, 3.89375, 0.81375, -4.55, 3.89375, 0.81375, -0.3675, 1.77625, 0.4725, -0.3675, 1.77625, 0.4725
4.03015995026, -4.55, 3.89375, 0.81375, -4.55, 3.89375, 0.81375, -0.3675, 1.77625, 0.4725, -0.3675, 1.77625, 0.4725
4.04035997391, -4.795, 3.7275, 0.8225, -4.795, 3.7275, 0.8225, -0.1225, 1.855, 0.55125, -0.1225, 1.855, 0.55125
4.05052709579, -4.795, 3.7275, 0.8225, -4.795, 3.7275, 0.8225, -0.1225, 1.855, 0.55125, -0.1225, 1.855, 0.55125
4.06072902679, -4.5675, 4.19125, 0.72625, -4.5675, 4.19125, 0.72625, -0.46375, 2.12625, 0.385, -0.46375, 2.12625, 0.385
4.07095313072, -4.5675, 4.19125, 0.72625, -4.5675, 4.19125, 0.72625, -0.46375, 2.12625, 0.385, -0.46375, 2.12625, 0.385
4.08117389679, -4.585, 3.9025, 0.62125, -4.585, 3.9025, 0.62125, -0.21, 2.03875, 0.48125, -0.21, 2.03875, 0.48125
4.09134602547, -4.585, 3.9025, 0.62125, -4.585, 3.9025, 0.62125, -0.21, 2.03875, 0.48125, -0.21, 2.03875, 0.48125
4.1015689373, -4.7075, 4.06875, 0.81375, -4.7075, 4.06875, 0.81375, -0.1575, 1.89875, 0.3325, -0.1575, 1.89875, 0.3325
4.1117579937, -4.7075, 4.06875, 0.81375, -4.7075, 4.06875, 0.81375, -0.1575, 1.89875, 0.3325, -0.1575, 1.89875, 0.3325
4.12193107605, -4.68125, 3.71875, 0.8225, -4.68125, 3.71875, 0.8225, -0.0175, 1.995, 0.48125, -0.0175, 1.995, 0.48125
4.1320939064, -4.68125, 3.71875, 0.8225, -4.68125, 3.71875, 0.8225, -0.0175, 1.995, 0.48125, -0.0175, 1.995, 0.48125
4.14225697517, -4.655, 3.98125, 0.77, -4.655, 3.98125, 0.77, -0.44625, 2.0475, 0.5775, -0.44625, 2.0475, 0.5775
4.15240597725, -4.655, 3.98125, 0.77, -4.655, 3.98125, 0.77, -0.44625, 2.0475, 0.5775, -0.44625, 2.0475, 0.5775
4.16286993027, -4.61125, 3.91125, 0.76125, -4.61125, 3.91125, 0.76125, -0.46375, 2.10875, 0.39375, -0.46375, 2.10875, 0.39375
4.17335391045, -4.61125, 3.91125, 0.76125, -4.61125, 3.91125, 0.76125, -0.46375, 2.10875, 0.39375, -0.46375, 2.10875, 0.39375
4.18355607986, -4.61125, 3.99875, 0.74375, -4.61125, 3.99875, 0.74375, -0.11375, 1.88125, 0.49, -0.11375, 1.88125, 0.49
4.19371700287, -4.61125, 3.99875, 0.74375, -4.61125, 3.99875, 0.74375, -0.11375, 1.88125, 0.49, -0.11375, 1.88125, 0.49
4.20384693146, -4.55, 4.0075, 0.6475, -4.55, 4.0075, 0.6475, -0.3325, 1.785, 0.5425, -0.3325, 1.785, 0.5425
4.21404290199, -4.55, 4.0075, 0.6475, -4.55, 4.0075, 0.6475, -0.3325, 1.785, 0.5425, -0.3325, 1.785, 0.5425
4.22429203987, -4.725, 4.025, 0.88375, -4.725, 4.025, 0.88375, -0.21875, 1.8725, 0.315, -0.21875, 1.8725, 0.315
4.23451495171, -4.725, 4.025, 0.88375, -4.725, 4.025, 0.88375, -0.21875, 1.8725, 0.315, -0.21875, 1.8725, 0.315
4.24474096298, -4.3575, 3.63125, 0.70875, -4.3575, 3.63125, 0.70875, -0.175, 1.855, 0.525, -0.175, 1.855, 0.525
4.25499010086, -4.3575, 3.63125, 0.70875, -4.3575, 3.63125, 0.70875, -0.175, 1.855, 0.525, -0.175, 1.855, 0.525
4.26536607742, -4.7075, 4.05125, 0.84875, -4.7075, 4.05125, 0.84875, -0.11375, 1.9075, 0.25375, -0.11375, 1.9075, 0.25375
4.27556705475, -4.7075, 4.05125, 0.84875, -4.7075, 4.05125, 0.84875, -0.11375, 1.9075, 0.25375, -0.11375, 1.9075, 0.25375
4.28577399254, -4.62, 3.7625, 0.84, -4.62, 3.7625, 0.84, -0.13125, 1.9775, 0.35, -0.13125, 1.9775, 0.35
4.29596710205, -4.62, 3.7625, 0.84, -4.62, 3.7625, 0.84, -0.13125, 1.9775, 0.35, -0.13125, 1.9775, 0.35
4.30612397194, -4.55875, 3.8675, 0.91875, -4.55875, 3.8675, 0.91875, -0.3675, 1.77625, 0.46375, -0.3675, 1.77625, 0.46375
4.31635594368, -4.55875, 3.8675, 0.91875, -4.55875, 3.8675, 0.91875, -0.3675, 1.77625, 0.46375, -0.3675, 1.77625, 0.46375
4.32775712013, -4.40125, 3.9725, 0.81375, -4.40125, 3.9725, 0.81375, -0.1575, 1.91625, 0.44625, -0.1575, 1.91625, 0.44625
4.33793592453, -4.40125, 3.9725, 0.81375, -4.40125, 3.9725, 0.81375, -0.1575, 1.91625, 0.44625, -0.1575, 1.91625, 0.44625
4.34811091423, -4.40125, 3.9725, 0.81375, -4.40125, 3.9725, 0.81375, -0.1575, 1.91625, 0.44625, -0.1575, 1.91625, 0.44625
4.35830593109, -4.54125, 3.85875, 0.7175, -4.54125, 3.85875, 0.7175, -0.23625, 2.07375, 0.5075, -0.23625, 2.07375, 0.5075
4.36849212646, -4.54125, 3.85875, 0.7175, -4.54125, 3.85875, 0.7175, -0.23625, 2.07375, 0.5075, -0.23625, 2.07375, 0.5075
4.37868595123, -4.69, 4.01625, 0.69125, -4.69, 4.01625, 0.69125, -0.455, 1.6275, 0.46375, -0.455, 1.6275, 0.46375
4.38890099525, -4.69, 4.01625, 0.69125, -4.69, 4.01625, 0.69125, -0.455, 1.6275, 0.46375, -0.455, 1.6275, 0.46375
4.39914512634, -4.7775, 3.8675, 0.8225, -4.7775, 3.8675, 0.8225, -0.14, 1.9775, 0.56875, -0.14, 1.9775, 0.56875
4.40936994553, -4.7775, 3.8675, 0.8225, -4.7775, 3.8675, 0.8225, -0.14, 1.9775, 0.56875, -0.14, 1.9775, 0.56875
4.41968011856, -4.4975, 3.8325, 0.84, -4.4975, 3.8325, 0.84, -0.2275, 2.135, 0.46375, -0.2275, 2.135, 0.46375
4.42988109589, -4.4975, 3.8325, 0.84, -4.4975, 3.8325, 0.84, -0.2275, 2.135, 0.46375, -0.2275, 2.135, 0.46375
4.44011497498, -4.5675, 3.955, 0.875, -4.5675, 3.955, 0.875, -0.13125, 2.02125, 0.2975, -0.13125, 2.02125, 0.2975
4.45031905174, -4.5675, 3.955, 0.875, -4.5675, 3.955, 0.875, -0.13125, 2.02125, 0.2975, -0.13125, 2.02125, 0.2975
4.4605050087, -4.62875, 3.99, 0.86625, -4.62875, 3.99, 0.86625, -0.14875, 2.02125, 0.35875, -0.14875, 2.02125, 0.35875
4.47074103355, -4.62875, 3.99, 0.86625, -4.62875, 3.99, 0.86625, -0.14875, 2.02125, 0.35875, -0.14875, 2.02125, 0.35875
4.48094105721, -4.75125, 3.94625, 0.7875, -4.75125, 3.94625, 0.7875, -0.4725, 2.02125, 0.4025, -0.14875, 2.02125, 0.35875
4.4913289547, -4.75125, 3.94625, 0.7875, -4.75125, 3.94625, 0.7875, -0.4725, 2.02125, 0.4025, -0.4725, 2.02125, 0.4025
4.50149798393, -4.62875, 3.815, 0.7, -4.62875, 3.815, 0.7, -0.41125, 1.81125, 0.385, -0.41125, 1.81125, 0.385
4.51169800758, -4.62875, 3.815, 0.7, -4.62875, 3.815, 0.7, -0.41125, 1.81125, 0.385, -0.41125, 1.81125, 0.385
4.52185511589, -4.57625, 3.85, 0.84875, -4.57625, 3.85, 0.84875, -0.16625, 1.995, 0.67375, -0.16625, 1.995, 0.67375
4.53204107285, -4.57625, 3.85, 0.84875, -4.57625, 3.85, 0.84875, -0.16625, 1.995, 0.67375, -0.16625, 1.995, 0.67375
4.54220795631, -4.55875, 3.99, 0.90125, -4.55875, 3.99, 0.90125, -0.315, 1.96, 0.5075, -0.315, 1.96, 0.5075
4.55240511894, -4.55875, 3.99, 0.90125, -4.55875, 3.99, 0.90125, -0.315, 1.96, 0.5075, -0.315, 1.96, 0.5075
4.56259512901, -4.55875, 3.99, 0.90125, -4.55875, 3.99, 0.90125, -0.315, 1.96, 0.5075, -0.315, 1.96, 0.5075
4.57301807404, -4.55875, 3.99, 0.90125, -4.55875, 3.99, 0.90125, -0.0525, 2.03875, 0.315, -0.315, 1.96, 0.5075
4.58322691917, -4.47125, 3.7275, 0.93625, -4.47125, 3.7275, 0.93625, -0.0525, 2.03875, 0.315, -0.0525, 2.03875, 0.315
4.59337210655, -4.375, 3.87625, 1.00625, -4.375, 3.87625, 1.00625, -0.25375, 1.8025, 0.32375, -0.25375, 1.8025, 0.32375
4.60355901718, -4.375, 3.87625, 1.00625, -4.375, 3.87625, 1.00625, -0.25375, 1.8025, 0.32375, -0.25375, 1.8025, 0.32375
4.61383199692, -4.6025, 4.0425, 0.84875, -4.6025, 4.0425, 0.84875, -0.28875, 1.855, 0.42, -0.28875, 1.855, 0.42
4.62411308289, -4.6025, 4.0425, 0.84875, -4.6025, 4.0425, 0.84875, -0.28875, 1.855, 0.42, -0.28875, 1.855, 0.42
4.63427495956, -4.6025, 4.0425, 0.84875, -4.6025, 4.0425, 0.84875, -0.28875, 1.855, 0.42, -0.28875, 1.855, 0.42
4.64454507828, -4.61125, 3.815, 0.9275, -4.61125, 3.815, 0.9275, -0.25375, 1.995, 0.72625, -0.25375, 1.995, 0.72625
4.65470004082, -4.7425, 3.64875, 0.945, -4.7425, 3.64875, 0.945, -0.00875, 1.7325, 0.49875, -0.00875, 1.7325, 0.49875
4.66490101814, -4.7425, 3.64875, 0.945, -4.7425, 3.64875, 0.945, -0.00875, 1.7325, 0.49875, -0.00875, 1.7325, 0.49875
4.67514204979, -4.94375, 3.94625, 0.63875, -4.94375, 3.94625, 0.63875, -0.28875, 1.96, 0.41125, -0.28875, 1.96, 0.41125
4.68545198441, -4.94375, 3.94625, 0.63875, -4.94375, 3.94625, 0.63875, -0.28875, 1.96, 0.41125, -0.28875, 1.96, 0.41125
4.69564509392, -4.7075, 4.0775, 0.72625, -4.7075, 4.0775, 0.72625, -0.14, 2.09125, 0.39375, -0.14, 2.09125, 0.39375
4.70586109161, -4.7075, 4.0775, 0.72625, -4.7075, 4.0775, 0.72625, -0.14, 2.09125, 0.39375, -0.14, 2.09125, 0.39375
4.71604704857, -4.515, 3.80625, 0.86625, -4.515, 3.80625, 0.86625, -0.2975, 1.88125, 0.7875, -0.2975, 1.88125, 0.7875
4.72621798515, -4.515, 3.80625, 0.86625, -4.515, 3.80625, 0.86625, -0.2975, 1.88125, 0.7875, -0.2975, 1.88125, 0.7875
4.736369133, -4.585, 3.87625, 0.805, -4.585, 3.87625, 0.805, -0.1925, 1.86375, 0.49875, -0.1925, 1.86375, 0.49875
4.74655890465, -4.585, 3.87625, 0.805, -4.585, 3.87625, 0.805, -0.1925, 1.86375, 0.49875, -0.1925, 1.86375, 0.49875
4.75675702095, -4.585, 3.87625, 0.805, -4.585, 3.87625, 0.805, -0.1925, 1.86375, 0.49875, -0.1925, 1.86375, 0.49875
4.76694297791, -4.71625, 3.815, 0.77875, -4.71625, 3.815, 0.77875, -0.30625, 1.82875, 0.65625, -0.30625, 1.82875, 0.65625
4.77724504471, -4.5325, 3.885, 0.7, -4.71625, 3.815, 0.77875, -0.32375, 1.93375, 0.42, -0.30625, 1.82875, 0.65625
4.7874610424, -4.5325, 3.885, 0.7, -4.5325, 3.885, 0.7, -0.32375, 1.93375, 0.42, -0.32375, 1.93375, 0.42
4.79762601852, -4.71625, 3.96375, 0.7875, -4.71625, 3.96375, 0.7875, -0.21875, 1.9775, 0.595, -0.21875, 1.9775, 0.595
4.80780100822, -4.71625, 3.96375, 0.7875, -4.71625, 3.96375, 0.7875, -0.21875, 1.9775, 0.595, -0.21875, 1.9775, 0.595
4.81795096397, -4.64625, 4.025, 0.805, -4.71625, 3.96375, 0.7875, -0.21875, 1.9775, 0.595, -0.21875, 1.9775, 0.595
4.82826709747, -4.64625, 4.025, 0.805, -4.64625, 4.025, 0.805, -0.14, 1.88125, 0.63, -0.14, 1.88125, 0.63
4.83863091469, -4.5325, 4.10375, 0.79625, -4.5325, 4.10375, 0.79625, -0.13125, 2.19625, 0.7875, -0.13125, 2.19625, 0.7875
4.84878110886, -4.5325, 4.10375, 0.79625, -4.5325, 4.10375, 0.79625, -0.13125, 2.19625, 0.7875, -0.13125, 2.19625, 0.7875
4.85894989967, -4.75125, 4.08625, 0.7875, -4.5325, 4.10375, 0.79625, -0.14, 2.0475, 0.63875, -0.14, 2.0475, 0.63875
4.86951804161, -4.75125, 4.08625, 0.7875, -4.75125, 4.08625, 0.7875, -0.14, 2.0475, 0.63875, -0.14, 2.0475, 0.63875
4.87969398499, -4.75125, 4.08625, 0.7875, -4.75125, 4.08625, 0.7875, -0.14, 2.0475, 0.63875, -0.14, 2.0475, 0.63875
4.88985991478, -4.725, 4.08625, 0.945, -4.725, 4.08625, 0.945, -0.28875, 2.19625, 0.58625, -0.28875, 2.19625, 0.58625
4.90009307861, -4.725, 4.08625, 0.945, -4.725, 4.08625, 0.945, -0.28875, 2.19625, 0.58625, -0.28875, 2.19625, 0.58625
4.91040992737, -4.6375, 3.66625, 0.77875, -4.6375, 3.66625, 0.77875, -0.27125, 1.84625, 0.27125, -0.27125, 1.84625, 0.27125
4.92056298256, -4.5675, 3.91125, 0.735, -4.6375, 3.66625, 0.77875, -0.27125, 1.84625, 0.27125, -0.27125, 1.84625, 0.27125
4.93088793755, -4.5675, 3.91125, 0.735, -4.5675, 3.91125, 0.735, -0.5075, 1.8025, 0.2975, -0.5075, 1.8025, 0.2975
4.94112610817, -4.5675, 3.91125, 0.735, -4.5675, 3.91125, 0.735, -0.5075, 1.8025, 0.2975, -0.5075, 1.8025, 0.2975
4.95137095451, -4.6375, 3.77125, 0.7525, -4.6375, 3.77125, 0.7525, -0.245, 2.275, 0.46375, -0.245, 2.275, 0.46375
4.96157002449, -4.6375, 3.77125, 0.7525, -4.6375, 3.77125, 0.7525, -0.245, 2.275, 0.46375, -0.245, 2.275, 0.46375
4.97175192833, -4.83875, 4.0775, 0.77, -4.83875, 4.0775, 0.77, -0.25375, 1.91625, 0.48125, -0.25375, 1.91625, 0.48125
4.98193693161, -4.83875, 4.0775, 0.77, -4.83875, 4.0775, 0.77, -0.25375, 1.91625, 0.48125, -0.25375, 1.91625, 0.48125
4.99211502075, -4.725, 3.7625, 0.735, -4.725, 3.7625, 0.735, -0.18375, 1.96875, 0.37625, -0.18375, 1.96875, 0.37625
5.00230407715, -4.725, 3.7625, 0.735, -4.725, 3.7625, 0.735, -0.18375, 1.96875, 0.37625, -0.18375, 1.96875, 0.37625
5.01257395744, -4.69875, 3.99875, 0.7175, -4.69875, 3.99875, 0.7175, -0.245, 2.0475, 0.4025, -0.245, 2.0475, 0.4025
5.02283000946, -4.69875, 3.99875, 0.7175, -4.69875, 3.99875, 0.7175, -0.245, 2.0475, 0.4025, -0.245, 2.0475, 0.4025
5.03298211098, -4.6725, 3.80625, 0.76125, -4.6725, 3.80625, 0.76125, -0.16625, 1.7675, 0.42875, -0.16625, 1.7675, 0.42875
5.04317498207, -4.6725, 3.80625, 0.76125, -4.6725, 3.80625, 0.76125, -0.16625, 1.7675, 0.42875, -0.16625, 1.7675, 0.42875
5.05336689949, -4.83, 4.17375, 0.76125, -4.83, 4.17375, 0.76125, -0.1225, 2.17, 0.35875, -0.1225, 2.17, 0.35875
5.06367111206, -4.83, 4.17375, 0.76125, -4.83, 4.17375, 0.76125, -0.1225, 2.17, 0.35875, -0.1225, 2.17, 0.35875
5.07384991646, -4.76875, 4.0075, 0.72625, -4.76875, 4.0075, 0.72625, 0.06125, 1.98625, 0.5775, 0.06125, 1.98625, 0.5775
5.08403992653, -4.76875, 4.0075, 0.72625, -4.76875, 4.0075, 0.72625, 0.06125, 1.98625, 0.5775, 0.06125, 1.98625, 0.5775
5.09428501129, -4.62, 3.75375, 0.72625, -4.62, 3.75375, 0.72625, -0.0525, 2.065, 0.2275, -0.0525, 2.065, 0.2275
5.10444402695, -4.62, 3.75375, 0.72625, -4.62, 3.75375, 0.72625, -0.0525, 2.065, 0.2275, -0.0525, 2.065, 0.2275
5.11462807655, -4.725, 3.73625, 0.69125, -4.725, 3.73625, 0.69125, -0.25375, 2.205, 0.51625, -0.25375, 2.205, 0.51625
5.12482905388, -4.725, 3.73625, 0.69125, -4.725, 3.73625, 0.69125, -0.25375, 2.205, 0.51625, -0.25375, 2.205, 0.51625
5.13510107994, -4.71625, 3.87625, 0.8225, -4.71625, 3.87625, 0.8225, -0.35, 2.1175, 0.42875, -0.35, 2.1175, 0.42875
5.14551997185, -4.71625, 3.87625, 0.8225, -4.71625, 3.87625, 0.8225, -0.35, 2.1175, 0.42875, -0.35, 2.1175, 0.42875
5.15567398071, -4.6025, 4.0075, 0.76125, -4.6025, 4.0075, 0.76125, -0.2625, 1.9425, 0.53375, -0.2625, 1.9425, 0.53375
5.1658949852, -4.6025, 4.0075, 0.76125, -4.6025, 4.0075, 0.76125, -0.2625, 1.9425, 0.53375, -0.2625, 1.9425, 0.53375
5.17614197731, -4.82125, 3.92, 0.93625, -4.82125, 3.92, 0.93625, -0.245, 2.135, 0.42, -0.245, 2.135, 0.42
5.18629908562, -4.82125, 3.92, 0.93625, -4.82125, 3.92, 0.93625, -0.245, 2.135, 0.42, -0.245, 2.135, 0.42
5.19648003578, -4.6025, 3.7625, 0.5425, -4.6025, 3.7625, 0.5425, -0.1925, 1.86375, 0.35, -0.1925, 1.86375, 0.35
5.20675706863, -4.6025, 3.7625, 0.5425, -4.6025, 3.7625, 0.5425, -0.1925, 1.86375, 0.35, -0.1925, 1.86375, 0.35
5.21703600883, -4.48875, 3.7625, 0.93625, -4.48875, 3.7625, 0.93625, -0.42875, 1.98625, 0.53375, -0.42875, 1.98625, 0.53375
5.22718811035, -4.48875, 3.7625, 0.93625, -4.48875, 3.7625, 0.93625, -0.42875, 1.98625, 0.53375, -0.42875, 1.98625, 0.53375
5.2373650074, -4.80375, 3.955, 0.88375, -4.80375, 3.955, 0.88375, -0.28, 2.12625, 0.60375, -0.28, 2.12625, 0.60375
5.24764800072, -4.80375, 3.955, 0.88375, -4.80375, 3.955, 0.88375, -0.28, 2.12625, 0.60375, -0.28, 2.12625, 0.60375
5.25805401802, -2.2575, 3.78875, 0.63, -2.2575, 3.78875, 0.63, -0.09625, 1.96, 0.56875, -0.09625, 1.96, 0.56875
5.26819705963, -2.2575, 3.78875, 0.63, -2.2575, 3.78875, 0.63, -0.09625, 1.96, 0.56875, -0.09625, 1.96, 0.56875
5.27838492393, -2.2575, 3.78875, 0.63, -2.2575, 3.78875, 0.63, -0.09625, 1.96, 0.56875, -0.09625, 1.96, 0.56875
5.28859901428, -4.57625, 3.84125, 0.79625, -4.57625, 3.84125, 0.79625, -0.21, 1.8725, 0.39375, -0.21, 1.8725, 0.39375
5.29879713058, -4.7775, 4.1125, 0.81375, -4.7775, 4.1125, 0.81375, -0.11375, 1.98625, 0.5075, -0.11375, 1.98625, 0.5075
5.30894398689, -4.7775, 4.1125, 0.81375, -4.7775, 4.1125, 0.81375, -0.11375, 1.98625, 0.5075, -0.11375, 1.98625, 0.5075
5.31913089752, -4.64625, 4.13, 1.00625, -4.64625, 4.13, 1.00625, -0.0875, 2.1, 0.5775, -0.0875, 2.1, 0.5775
5.3292889595, -4.64625, 4.13, 1.00625, -4.64625, 4.13, 1.00625, -0.0875, 2.1, 0.5775, -0.0875, 2.1, 0.5775
5.33998894691, -4.82125, 3.6925, 0.81375, -4.82125, 3.6925, 0.81375, -0.30625, 1.95125, 0.5425, -0.30625, 1.95125, 0.5425
5.35035395622, -4.82125, 3.6925, 0.81375, -4.82125, 3.6925, 0.81375, -0.30625, 1.95125, 0.5425, -0.30625, 1.95125, 0.5425
5.36053609848, -4.6375, 4.06, 0.8225, -4.6375, 4.06, 0.8225, -0.16625, 2.1525, 0.32375, -0.16625, 2.1525, 0.32375
5.37067890167, -4.6375, 4.06, 0.8225, -4.6375, 4.06, 0.8225, -0.16625, 2.1525, 0.32375, -0.16625, 2.1525, 0.32375
5.38102793694, -4.865, 3.9025, 0.42, -4.6375, 4.06, 0.8225, -0.35875, 1.9775, 0.72625, -0.16625, 2.1525, 0.32375
5.39142012596, -4.865, 3.9025, 0.42, -4.865, 3.9025, 0.42, -0.35875, 1.9775, 0.72625, -0.35875, 1.9775, 0.72625
5.40162301064, -4.865, 3.9025, 0.42, -4.865, 3.9025, 0.42, -0.35875, 1.9775, 0.72625, -0.35875, 1.9775, 0.72625
5.41181612015, -4.5325, 4.025, 0.98875, -4.5325, 4.025, 0.98875, -0.18375, 2.12625, 0.58625, -0.18375, 2.12625, 0.58625
5.42197203636, -4.5325, 4.025, 0.98875, -4.5325, 4.025, 0.98875, -0.18375, 2.12625, 0.58625, -0.18375, 2.12625, 0.58625
5.43218898773, -4.73375, 3.99, 0.7875, -4.73375, 3.99, 0.7875, -0.27125, 1.93375, 0.665, -0.27125, 1.93375, 0.665
5.44242095947, -4.73375, 3.99, 0.7875, -4.73375, 3.99, 0.7875, -0.27125, 1.93375, 0.665, -0.27125, 1.93375, 0.665
5.45262789726, -4.62875, 3.73625, 0.79625, -4.62875, 3.73625, 0.79625, -0.39375, 1.96875, 0.46375, -0.39375, 1.96875, 0.46375
5.4627699852, -4.62875, 3.73625, 0.79625, -4.62875, 3.73625, 0.79625, -0.39375, 1.96875, 0.46375, -0.39375, 1.96875, 0.46375
5.47304606438, -4.515, 3.9025, 0.86625, -4.515, 3.9025, 0.86625, -0.21875, 1.88125, 0.46375, -0.21875, 1.88125, 0.46375
5.48353099823, -4.515, 3.9025, 0.86625, -4.515, 3.9025, 0.86625, -0.21875, 1.88125, 0.46375, -0.21875, 1.88125, 0.46375
5.49374604225, -4.7775, 4.05125, 0.8225, -4.7775, 4.05125, 0.8225, -0.175, 1.6625, 0.30625, -0.175, 1.6625, 0.30625
5.50392198563, -4.7775, 4.05125, 0.8225, -4.7775, 4.05125, 0.8225, -0.175, 1.6625, 0.30625, -0.175, 1.6625, 0.30625
5.51414704323, -4.41, 3.77125, 0.8925, -4.41, 3.77125, 0.8925, 0.0, 1.96875, 0.4725, 0.0, 1.96875, 0.4725
5.52441692352, -4.41, 3.77125, 0.8925, -4.41, 3.77125, 0.8925, 0.0, 1.96875, 0.4725, 0.0, 1.96875, 0.4725
5.53482198715, -4.68125, 3.99875, 0.7, -4.68125, 3.99875, 0.7, -0.37625, 1.82875, 0.3675, -0.37625, 1.82875, 0.3675
5.54498791695, -4.68125, 3.99875, 0.7, -4.68125, 3.99875, 0.7, -0.37625, 1.82875, 0.3675, -0.37625, 1.82875, 0.3675
5.55516409874, -4.7425, 4.0425, 0.84875, -4.7425, 4.0425, 0.84875, -0.28875, 1.96, 0.42, -0.28875, 1.96, 0.42
5.56534099579, -4.7425, 4.0425, 0.84875, -4.7425, 4.0425, 0.84875, -0.28875, 1.96, 0.42, -0.28875, 1.96, 0.42
5.57549500465, -4.375, 3.6575, 0.76125, -4.375, 3.6575, 0.76125, -0.21875, 2.00375, 0.25375, -0.21875, 2.00375, 0.25375
5.58568692207, -4.375, 3.6575, 0.76125, -4.375, 3.6575, 0.76125, -0.21875, 2.00375, 0.25375, -0.21875, 2.00375, 0.25375
5.59585189819, -4.6375, 3.955, 0.5425, -4.6375, 3.955, 0.5425, -0.28875, 1.65375, 0.42875, -0.28875, 1.65375, 0.42875
5.60600090027, -4.6375, 3.955, 0.5425, -4.6375, 3.955, 0.5425, -0.28875, 1.65375, 0.42875, -0.28875, 1.65375, 0.42875
5.61620807648, -4.71625, 3.815, 0.7175, -4.71625, 3.815, 0.7175, -0.13125, 2.10875, 0.65625, -0.13125, 2.10875, 0.65625
5.62646198273, -4.71625, 3.815, 0.7175, -4.71625, 3.815, 0.7175, -0.13125, 2.10875, 0.65625, -0.13125, 2.10875, 0.65625
5.63664698601, -4.34, 3.7275, 0.79625, -4.34, 3.7275, 0.79625, -0.3325, 1.8375, 0.51625, -0.3325, 1.8375, 0.51625
5.64687490463, -4.34, 3.7275, 0.79625, -4.34, 3.7275, 0.79625, -0.3325, 1.8375, 0.51625, -0.3325, 1.8375, 0.51625
5.65717601776, -4.34, 3.7275, 0.79625, -4.34, 3.7275, 0.79625, -0.3325, 1.8375, 0.51625, -0.3325, 1.8375, 0.51625
5.66751194, -4.7425, 3.84125, 0.79625, -4.7425, 3.84125, 0.79625, -0.4375, 2.14375, 0.4375, -0.4375, 2.14375, 0.4375
5.67768311501, -4.7075, 3.78, 0.77, -4.7075, 3.78, 0.77, -0.28875, 1.7675, 0.2625, -0.28875, 1.7675, 0.2625
5.68787002563, -4.7075, 3.78, 0.77, -4.7075, 3.78, 0.77, -0.28875, 1.7675, 0.2625, -0.28875, 1.7675, 0.2625
5.69809508324, -4.6725, 3.7975, 0.805, -4.6725, 3.7975, 0.805, -0.315, 1.715, 0.42875, -0.315, 1.715, 0.42875
5.70836591721, -4.6725, 3.7975, 0.805, -4.6725, 3.7975, 0.805, -0.315, 1.715, 0.42875, -0.315, 1.715, 0.42875
5.71858692169, -4.585, 3.99, 0.875, -4.585, 3.99, 0.875, -0.07875, 2.00375, 0.49, -0.07875, 2.00375, 0.49
5.72879099846, -4.585, 3.99, 0.875, -4.585, 3.99, 0.875, -0.07875, 2.00375, 0.49, -0.07875, 2.00375, 0.49
5.73903989792, -4.76, 3.85, 0.70875, -4.76, 3.85, 0.70875, -0.16625, 2.065, 0.06125, -0.16625, 2.065, 0.06125
5.74919199944, -4.76, 3.85, 0.70875, -4.76, 3.85, 0.70875, -0.16625, 2.065, 0.06125, -0.16625, 2.065, 0.06125
5.75934004784, -4.48, 3.92, 0.8225, -4.48, 3.92, 0.8225, -0.455, 1.6975, 0.2975, -0.455, 1.6975, 0.2975
5.76955890656, -4.48, 3.92, 0.8225, -4.48, 3.92, 0.8225, -0.455, 1.6975, 0.2975, -0.455, 1.6975, 0.2975
5.77996492386, -4.55, 3.64875, 0.95375, -4.55, 3.64875, 0.95375, -0.35875, 2.16125, 0.5075, -0.35875, 2.16125, 0.5075
5.7901289463, -4.55, 3.64875, 0.95375, -4.55, 3.64875, 0.95375, -0.35875, 2.16125, 0.5075, -0.35875, 2.16125, 0.5075
5.80031895638, -4.55, 3.7625, 0.76125, -4.55, 3.7625, 0.76125, -0.46375, 2.03, 0.35, -0.46375, 2.03, 0.35
5.81052613258, -4.55, 3.7625, 0.76125, -4.55, 3.7625, 0.76125, -0.46375, 2.03, 0.35, -0.46375, 2.03, 0.35
5.82077407837, -4.2525, 3.85, 0.735, -4.2525, 3.85, 0.735, -0.4025, 2.1875, 0.53375, -0.4025, 2.1875, 0.53375
5.83097791672, -4.2525, 3.85, 0.735, -4.2525, 3.85, 0.735, -0.4025, 2.1875, 0.53375, -0.4025, 2.1875, 0.53375
5.84118008614, -4.2525, 3.85, 0.735, -4.2525, 3.85, 0.735, -0.4025, 2.1875, 0.53375, -0.4025, 2.1875, 0.53375
5.85148406029, -4.795, 4.095, 0.735, -4.795, 4.095, 0.735, -0.2275, 2.02125, 0.6825, -0.2275, 2.02125, 0.6825
5.86183190346, -4.92625, 3.73625, 0.8225, -4.92625, 3.73625, 0.8225, -0.02625, 2.02125, 0.5075, -0.02625, 2.02125, 0.5075
5.87201404572, -4.92625, 3.73625, 0.8225, -4.92625, 3.73625, 0.8225, -0.02625, 2.02125, 0.5075, -0.02625, 2.02125, 0.5075
5.88224005699, -4.78625, 3.87625, 0.81375, -4.78625, 3.87625, 0.81375, -0.4375, 1.96, 0.58625, -0.4375, 1.96, 0.58625
5.89242100716, -4.78625, 3.87625, 0.81375, -4.78625, 3.87625, 0.81375, -0.4375, 1.96, 0.58625, -0.4375, 1.96, 0.58625
5.90260601044, -4.78625, 3.87625, 0.81375, -4.78625, 3.87625, 0.81375, -0.4375, 1.96, 0.58625, -0.4375, 1.96, 0.58625
5.91278409958, -4.795, 3.66625, 0.83125, -4.795, 3.66625, 0.83125, -0.35, 2.0475, 0.46375, -0.35, 2.0475, 0.46375
5.92292690277, -4.78625, 3.8325, 0.93625, -4.78625, 3.8325, 0.93625, -0.34125, 1.91625, 0.20125, -0.34125, 1.91625, 0.20125
5.93313908577, -4.78625, 3.8325, 0.93625, -4.78625, 3.8325, 0.93625, -0.34125, 1.91625, 0.20125, -0.34125, 1.91625, 0.20125
5.94330310822, -4.71625, 3.98125, 0.77, -4.71625, 3.98125, 0.77, -0.0875, 1.96875, 0.27125, -0.0875, 1.96875, 0.27125
5.95357894897, -4.71625, 3.98125, 0.77, -4.71625, 3.98125, 0.77, -0.0875, 1.96875, 0.27125, -0.0875, 1.96875, 0.27125
5.96384501457, -4.71625, 3.98125, 0.77, -4.71625, 3.98125, 0.77, -0.0875, 1.96875, 0.27125, -0.0875, 1.96875, 0.27125
5.97423291206, -4.725, 3.75375, 0.88375, -4.725, 3.75375, 0.88375, -0.35875, 2.02125, 0.28875, -0.35875, 2.02125, 0.28875
5.98440599442, -4.71625, 3.87625, 0.67375, -4.71625, 3.87625, 0.67375, -0.07875, 1.91625, 0.28, -0.07875, 1.91625, 0.28
5.99458789825, -4.71625, 3.87625, 0.67375, -4.71625, 3.87625, 0.67375, -0.07875, 1.91625, 0.28, -0.07875, 1.91625, 0.28
6.00475597382, -4.78625, 3.96375, 0.6125, -4.78625, 3.96375, 0.6125, -0.25375, 1.7675, 0.53375, -0.25375, 1.7675, 0.53375
6.0149230957, -4.78625, 3.96375, 0.6125, -4.78625, 3.96375, 0.6125, -0.25375, 1.7675, 0.53375, -0.25375, 1.7675, 0.53375
6.02506899834, -4.78625, 3.96375, 0.6125, -4.78625, 3.96375, 0.6125, -0.25375, 1.7675, 0.53375, -0.25375, 1.7675, 0.53375
6.03521895409, -4.71625, 3.9375, 0.7175, -4.71625, 3.9375, 0.7175, -0.14, 2.03875, 0.49, -0.14, 2.03875, 0.49
6.04548597336, -4.6725, 3.84125, 0.7175, -4.6725, 3.84125, 0.7175, -0.18375, 2.16125, 0.385, -0.18375, 2.16125, 0.385
6.05582809448, -4.6725, 3.84125, 0.7175, -4.6725, 3.84125, 0.7175, -0.18375, 2.16125, 0.385, -0.18375, 2.16125, 0.385
6.06597089767, -4.515, 3.92875, 0.77875, -4.515, 3.92875, 0.77875, -0.14875, 1.9075, 0.5775, -0.14875, 1.9075, 0.5775
6.07612705231, -4.515, 3.92875, 0.77875, -4.515, 3.92875, 0.77875, -0.14875, 1.9075, 0.5775, -0.14875, 1.9075, 0.5775
6.08634710312, -4.515, 3.92875, 0.77875, -4.515, 3.92875, 0.77875, -0.14875, 1.9075, 0.5775, -0.14875, 1.9075, 0.5775
6.0964910984, -4.6725, 3.87625, 0.79625, -4.6725, 3.87625, 0.79625, -0.525, 2.10875, 0.6125, -0.525, 2.10875, 0.6125
6.10664606094, -4.69875, 3.94625, 0.88375, -4.69875, 3.94625, 0.88375, -0.42875, 1.96875, 0.385, -0.42875, 1.96875, 0.385
6.11684894562, -4.69875, 3.94625, 0.88375, -4.69875, 3.94625, 0.88375, -0.42875, 1.96875, 0.385, -0.42875, 1.96875, 0.385
6.12718009949, -4.4975, 3.9725, 0.76125, -4.4975, 3.9725, 0.76125, -0.21, 1.95125, 0.44625, -0.21, 1.95125, 0.44625
6.13735604286, -4.4975, 3.9725, 0.76125, -4.4975, 3.9725, 0.76125, -0.21, 1.95125, 0.44625, -0.21, 1.95125, 0.44625
6.14755511284, -4.4975, 3.9725, 0.76125, -4.4975, 3.9725, 0.76125, -0.21, 1.95125, 0.44625, -0.21, 1.95125, 0.44625
6.15781211853, -4.6025, 3.71875, 0.8225, -4.6025, 3.71875, 0.8225, -0.1575, 1.88125, 0.6825, -0.1575, 1.88125, 0.6825
6.16799998283, -4.55875, 3.885, 0.79625, -4.55875, 3.885, 0.79625, -0.49875, 1.8375, 0.51625, -0.49875, 1.8375, 0.51625
6.17816209793, -4.55875, 3.885, 0.79625, -4.55875, 3.885, 0.79625, -0.49875, 1.8375, 0.51625, -0.49875, 1.8375, 0.51625
6.18838405609, -4.62, 3.9375, 0.7175, -4.62, 3.9375, 0.7175, -0.2975, 1.91625, 0.5775, -0.2975, 1.91625, 0.5775
6.19870090485, -4.62, 3.9375, 0.7175, -4.62, 3.9375, 0.7175, -0.2975, 1.91625, 0.5775, -0.2975, 1.91625, 0.5775
6.20889091492, -4.62, 3.9375, 0.7175, -4.62, 3.9375, 0.7175, -0.2975, 1.91625, 0.5775, -0.2975, 1.91625, 0.5775
6.21905112267, -4.64625, 3.82375, 0.63, -4.64625, 3.82375, 0.63, -0.28, 1.8375, 0.18375, -0.28, 1.8375, 0.18375
6.22926807404, -4.7075, 3.815, 0.70875, -4.7075, 3.815, 0.70875, -0.4025, 1.8725, 0.4375, -0.4025, 1.8725, 0.4375
6.23945307732, -4.7075, 3.815, 0.70875, -4.7075, 3.815, 0.70875, -0.4025, 1.8725, 0.4375, -0.4025, 1.8725, 0.4375
6.24963212013, -4.9, 4.05125, 0.88375, -4.9, 4.05125, 0.88375, -0.315, 2.1, 0.4025, -0.315, 2.1, 0.4025
6.25985908508, -4.9, 4.05125, 0.88375, -4.9, 4.05125, 0.88375, -0.315, 2.1, 0.4025, -0.315, 2.1, 0.4025
6.27009797096, -4.69875, 3.7625, 0.93625, -4.69875, 3.7625, 0.93625, -0.3325, 2.12625, 0.21875, -0.3325, 2.12625, 0.21875
6.28050208092, -4.69875, 3.7625, 0.93625, -4.69875, 3.7625, 0.93625, -0.3325, 2.12625, 0.21875, -0.3325, 2.12625, 0.21875
6.29077196121, -4.71625, 3.885, 0.90125, -4.71625, 3.885, 0.90125, -0.13125, 2.03, 0.37625, -0.13125, 2.03, 0.37625
6.30103302002, -4.71625, 3.885, 0.90125, -4.71625, 3.885, 0.90125, -0.13125, 2.03, 0.37625, -0.13125, 2.03, 0.37625
6.31126594543, -4.92625, 4.01625, 0.93625, -4.92625, 4.01625, 0.93625, -0.25375, 2.03, 0.49, -0.25375, 2.03, 0.49
6.32142901421, -4.92625, 4.01625, 0.93625, -4.92625, 4.01625, 0.93625, -0.25375, 2.03, 0.49, -0.25375, 2.03, 0.49
6.33159208298, -4.92625, 3.885, 0.88375, -4.92625, 3.885, 0.88375, -0.37625, 1.6625, 0.34125, -0.37625, 1.6625, 0.34125
6.34177494049, -4.92625, 3.885, 0.88375, -4.92625, 3.885, 0.88375, -0.37625, 1.6625, 0.34125, -0.37625, 1.6625, 0.34125
6.35205411911, -4.655, 3.9025, 0.945, -4.655, 3.9025, 0.945, -0.35875, 1.9775, 0.56, -0.35875, 1.9775, 0.56
6.36223196983, -4.655, 3.9025, 0.945, -4.655, 3.9025, 0.945, -0.35875, 1.9775, 0.56, -0.35875, 1.9775, 0.56
6.37241697311, -4.59375, 3.87625, 0.83125, -4.59375, 3.87625, 0.83125, -0.2975, 1.98625, 0.455, -0.2975, 1.98625, 0.455
6.382584095, -4.59375, 3.87625, 0.83125, -4.59375, 3.87625, 0.83125, -0.2975, 1.98625, 0.455, -0.2975, 1.98625, 0.455
6.3928129673, -4.59375, 3.87625, 0.83125, -4.59375, 3.87625, 0.83125, -0.2975, 1.98625, 0.455, -0.2975, 1.98625, 0.455
6.40303611755, -4.71625, 3.7625, 0.7175, -4.71625, 3.7625, 0.7175, -0.44625, 1.9775, 0.21, -0.44625, 1.9775, 0.21
6.41337609291, -4.68125, 3.92875, 0.735, -4.68125, 3.92875, 0.735, -0.28, 1.855, 0.6125, -0.28, 1.855, 0.6125
6.42379903793, -4.68125, 3.92875, 0.735, -4.68125, 3.92875, 0.735, -0.28, 1.855, 0.6125, -0.28, 1.855, 0.6125
6.43396496773, -4.68125, 3.92875, 0.735, -4.68125, 3.92875, 0.735, -0.28, 1.855, 0.6125, -0.28, 1.855, 0.6125
6.44422006607, -4.55875, 4.2525, 0.79625, -4.55875, 4.2525, 0.79625, -0.23625, 1.995, 0.6125, -0.23625, 1.995, 0.6125
6.45442509651, -4.55875, 4.2525, 0.79625, -4.55875, 4.2525, 0.79625, -0.23625, 1.995, 0.6125, -0.23625, 1.995, 0.6125
6.4646730423, -4.55875, 4.2525, 0.79625, -4.55875, 4.2525, 0.79625, -0.23625, 1.995, 0.6125, -0.23625, 1.995, 0.6125
6.47483897209, -4.6725, 3.85875, 0.8575, -4.6725, 3.85875, 0.8575, -0.385, 2.16125, 0.49875, -0.385, 2.16125, 0.49875
6.48498106003, -4.69875, 4.06875, 0.6475, -4.69875, 4.06875, 0.6475, -0.3325, 1.82875, 0.595, -0.3325, 1.82875, 0.595
6.49523210526, -4.69875, 4.06875, 0.6475, -4.69875, 4.06875, 0.6475, -0.3325, 1.82875, 0.595, -0.3325, 1.82875, 0.595
6.50547409058, -4.97, 4.06875, 0.8575, -4.97, 4.06875, 0.8575, -0.21875, 2.00375, 0.44625, -0.21875, 2.00375, 0.44625
6.51561903954, -4.97, 4.06875, 0.8575, -4.97, 4.06875, 0.8575, -0.21875, 2.00375, 0.44625, -0.21875, 2.00375, 0.44625
6.52583789825, -4.69, 3.82375, 0.7525, -4.69, 3.82375, 0.7525, -0.20125, 1.9775, 0.49, -0.20125, 1.9775, 0.49
6.53602600098, -4.69, 3.82375, 0.7525, -4.69, 3.82375, 0.7525, -0.20125, 1.9775, 0.49, -0.20125, 1.9775, 0.49
6.54618000984, -4.515, 3.77125, 0.735, -4.515, 3.77125, 0.735, -0.21875, 1.7325, 0.46375, -0.21875, 1.7325, 0.46375
6.55639100075, -4.515, 3.77125, 0.735, -4.515, 3.77125, 0.735, -0.21875, 1.7325, 0.46375, -0.21875, 1.7325, 0.46375
6.56660604477, -4.7075, 3.77125, 0.8225, -4.7075, 3.77125, 0.8225, -0.04375, 2.10875, 0.49875, -0.21875, 1.7325, 0.46375
6.57711005211, -4.7075, 3.77125, 0.8225, -4.7075, 3.77125, 0.8225, -0.04375, 2.10875, 0.49875, -0.04375, 2.10875, 0.49875
6.5872631073, -4.71625, 3.92875, 1.015, -4.71625, 3.92875, 1.015, -0.20125, 1.995, 0.27125, -0.20125, 1.995, 0.27125
6.59738206863, -4.71625, 3.92875, 1.015, -4.71625, 3.92875, 1.015, -0.20125, 1.995, 0.27125, -0.20125, 1.995, 0.27125
6.60766005516, -4.71625, 3.92875, 1.015, -4.71625, 3.92875, 1.015, -0.20125, 1.995, 0.27125, -0.20125, 1.995, 0.27125
6.6181910038, -4.515, 3.955, 0.91875, -4.515, 3.955, 0.91875, -0.16625, 2.135, 0.3325, -0.16625, 2.135, 0.3325
6.62832403183, -4.47125, 3.80625, 0.735, -4.515, 3.955, 0.91875, -0.00875, 1.89, 0.665, -0.16625, 2.135, 0.3325
6.63865399361, -4.47125, 3.80625, 0.735, -4.47125, 3.80625, 0.735, -0.00875, 1.89, 0.665, -0.00875, 1.89, 0.665
6.64887094498, -4.47125, 3.80625, 0.735, -4.47125, 3.80625, 0.735, -0.00875, 1.89, 0.665, -0.00875, 1.89, 0.665
6.65902090073, -4.7425, 4.06, 0.62125, -4.7425, 4.06, 0.62125, -0.1575, 1.8725, 0.4725, -0.1575, 1.8725, 0.4725
6.66916108131, -4.7425, 4.06, 0.62125, -4.7425, 4.06, 0.62125, -0.1575, 1.8725, 0.4725, -0.1575, 1.8725, 0.4725
6.67933297157, -4.725, 4.1125, 0.7175, -4.725, 4.1125, 0.7175, -0.37625, 1.715, 0.385, -0.37625, 1.715, 0.385
6.68962907791, -4.725, 4.1125, 0.7175, -4.725, 4.1125, 0.7175, -0.37625, 1.715, 0.385, -0.37625, 1.715, 0.385
6.6998269558, -4.4975, 3.66625, 0.9275, -4.4975, 3.66625, 0.9275, -0.63, 1.995, 0.5425, -0.63, 1.995, 0.5425
6.71003198624, -4.4975, 3.66625, 0.9275, -4.4975, 3.66625, 0.9275, -0.63, 1.995, 0.5425, -0.63, 1.995, 0.5425
6.72023510933, -4.515, 3.75375, 0.8225, -4.515, 3.75375, 0.8225, -0.41125, 1.89, 0.5075, -0.41125, 1.89, 0.5075
6.73040294647, -4.515, 3.75375, 0.8225, -4.515, 3.75375, 0.8225, -0.41125, 1.89, 0.5075, -0.41125, 1.89, 0.5075
6.74058008194, -4.73375, 3.7975, 0.91875, -4.73375, 3.7975, 0.91875, -0.37625, 2.0125, 0.7, -0.37625, 2.0125, 0.7
6.7507390976, -4.73375, 3.7975, 0.91875, -4.73375, 3.7975, 0.91875, -0.37625, 2.0125, 0.7, -0.37625, 2.0125, 0.7
6.7609899044, -4.61125, 3.9025, 0.83125, -4.61125, 3.9025, 0.83125, -0.175, 1.9775, 0.2975, -0.175, 1.9775, 0.2975
6.77133107185, -4.61125, 3.9025, 0.83125, -4.61125, 3.9025, 0.83125, -0.175, 1.9775, 0.2975, -0.175, 1.9775, 0.2975
6.78149199486, -4.6375, 3.815, 0.9975, -4.6375, 3.815, 0.9975, -0.3325, 1.8025, 0.62125, -0.3325, 1.8025, 0.62125
6.7916738987, -4.6375, 3.815, 0.9975, -4.6375, 3.815, 0.9975, -0.3325, 1.8025, 0.62125, -0.3325, 1.8025, 0.62125
6.80195307732, -4.6375, 3.78, 0.91, -4.6375, 3.78, 0.91, -0.4025, 1.785, 0.5075, -0.4025, 1.785, 0.5075
6.81231093407, -4.6375, 3.78, 0.91, -4.6375, 3.78, 0.91, -0.4025, 1.785, 0.5075, -0.4025, 1.785, 0.5075
6.82245898247, -4.76, 3.61375, 0.56, -4.76, 3.61375, 0.56, -0.14, 2.275, 0.5425, -0.14, 2.275, 0.5425
6.83263206482, -4.76, 3.61375, 0.56, -4.76, 3.61375, 0.56, -0.14, 2.275, 0.5425, -0.14, 2.275, 0.5425
6.8428580761, -4.52375, 4.12125, 0.77875, -4.52375, 4.12125, 0.77875, -0.28875, 1.67125, 0.35, -0.28875, 1.67125, 0.35
6.85316705704, -4.52375, 4.12125, 0.77875, -4.52375, 4.12125, 0.77875, -0.28875, 1.67125, 0.35, -0.28875, 1.67125, 0.35
6.86331105232, -4.52375, 4.12125, 0.77875, -4.52375, 4.12125, 0.77875, -0.28875, 1.67125, 0.35, -0.28875, 1.67125, 0.35
6.87352895737, -4.3925, 4.05125, 0.83125, -4.3925, 4.05125, 0.83125, -0.245, 2.00375, 0.58625, -0.245, 2.00375, 0.58625
6.88373804092, -4.3925, 4.05125, 0.83125, -4.3925, 4.05125, 0.83125, -0.245, 2.00375, 0.58625, -0.245, 2.00375, 0.58625
6.8939139843, -4.6375, 3.815, 0.7875, -4.6375, 3.815, 0.7875, -0.14, 1.93375, 0.525, -0.14, 1.93375, 0.525
6.90408492088, -4.6375, 3.815, 0.7875, -4.6375, 3.815, 0.7875, -0.14, 1.93375, 0.525, -0.14, 1.93375, 0.525
6.91428804398, -4.76, 3.9375, 0.8225, -4.76, 3.9375, 0.8225, -0.62125, 2.0475, 0.35, -0.62125, 2.0475, 0.35
6.92457795143, -4.76, 3.9375, 0.8225, -4.76, 3.9375, 0.8225, -0.62125, 2.0475, 0.35, -0.62125, 2.0475, 0.35
6.93477010727, -4.445, 3.955, 0.91875, -4.445, 3.955, 0.91875, -0.25375, 1.75, 0.74375, -0.25375, 1.75, 0.74375
6.94494390488, -4.445, 3.955, 0.91875, -4.445, 3.955, 0.91875, -0.25375, 1.75, 0.74375, -0.25375, 1.75, 0.74375
6.95512294769, -4.445, 3.955, 0.91875, -4.445, 3.955, 0.91875, -0.25375, 1.75, 0.74375, -0.25375, 1.75, 0.74375
6.96533989906, -4.585, 3.91125, 0.8575, -4.585, 3.91125, 0.8575, 0.02625, 1.93375, 0.595, 0.02625, 1.93375, 0.595
6.97551298141, -4.585, 3.91125, 0.8575, -4.585, 3.91125, 0.8575, 0.02625, 1.93375, 0.595, 0.02625, 1.93375, 0.595
6.98569011688, -4.57625, 3.6225, 0.84875, -4.57625, 3.6225, 0.84875, -0.245, 1.9425, 0.35, -0.245, 1.9425, 0.35
6.99596095085, -4.57625, 3.6225, 0.84875, -4.57625, 3.6225, 0.84875, -0.245, 1.9425, 0.35, -0.245, 1.9425, 0.35
7.00634694099, -4.725, 3.84125, 0.70875, -4.725, 3.84125, 0.70875, -0.4725, 1.82, 0.67375, -0.4725, 1.82, 0.67375
7.01648592949, -4.725, 3.84125, 0.70875, -4.725, 3.84125, 0.70875, -0.4725, 1.82, 0.67375, -0.4725, 1.82, 0.67375
7.02662205696, -4.64625, 3.85, 0.72625, -4.64625, 3.85, 0.72625, -0.06125, 1.88125, 0.28875, -0.06125, 1.88125, 0.28875
7.03690600395, -4.64625, 3.85, 0.72625, -4.64625, 3.85, 0.72625, -0.06125, 1.88125, 0.28875, -0.06125, 1.88125, 0.28875
7.04710698128, -4.64625, 3.85, 0.72625, -4.64625, 3.85, 0.72625, -0.06125, 1.88125, 0.28875, -0.06125, 1.88125, 0.28875
7.05727410316, -4.48875, 3.7625, 0.79625, -4.48875, 3.7625, 0.79625, -0.2625, 1.925, 0.3675, -0.2625, 1.925, 0.3675
7.0674431324, -4.48875, 3.7625, 0.79625, -4.48875, 3.7625, 0.79625, -0.2625, 1.925, 0.3675, -0.2625, 1.925, 0.3675
7.07762598991, -4.55875, 4.01625, 0.70875, -4.55875, 4.01625, 0.70875, -0.2625, 2.00375, 0.56875, -0.2625, 2.00375, 0.56875
7.0877969265, -4.55875, 4.01625, 0.70875, -4.55875, 4.01625, 0.70875, -0.2625, 2.00375, 0.56875, -0.2625, 2.00375, 0.56875
7.09800505638, -4.4275, 3.94625, 0.91, -4.4275, 3.94625, 0.91, -0.46375, 1.81125, 0.27125, -0.46375, 1.81125, 0.27125
7.10819506645, -4.4275, 3.94625, 0.91, -4.4275, 3.94625, 0.91, -0.46375, 1.81125, 0.27125, -0.46375, 1.81125, 0.27125
7.1183719635, -4.27875, 3.94625, 0.7875, -4.27875, 3.94625, 0.7875, -0.28875, 1.75875, 0.28, -0.28875, 1.75875, 0.28
7.12854099274, -4.27875, 3.94625, 0.7875, -4.27875, 3.94625, 0.7875, -0.28875, 1.75875, 0.28, -0.28875, 1.75875, 0.28
7.13881492615, -4.9175, 4.06875, 0.6125, -4.27875, 3.94625, 0.7875, -0.28875, 1.75875, 0.28, -0.28875, 1.75875, 0.28
7.1491549015, -4.9175, 4.06875, 0.6125, -4.9175, 4.06875, 0.6125, -0.35875, 1.9775, 0.53375, -0.35875, 1.9775, 0.53375
7.15957307816, -4.9175, 4.06875, 0.6125, -4.9175, 4.06875, 0.6125, -0.35875, 1.9775, 0.53375, -0.35875, 1.9775, 0.53375
7.16974210739, -4.48, 3.92875, 0.84, -4.48, 3.92875, 0.84, -0.28, 1.82, 0.42, -0.28, 1.82, 0.42
7.1799659729, -4.48, 3.92875, 0.84, -4.48, 3.92875, 0.84, -0.28, 1.82, 0.42, -0.28, 1.82, 0.42
7.19027304649, -4.38375, 3.6925, 0.77, -4.38375, 3.6925, 0.77, -0.27125, 2.1, 0.46375, -0.27125, 2.1, 0.46375
7.20045208931, -4.38375, 3.6925, 0.77, -4.38375, 3.6925, 0.77, -0.27125, 2.1, 0.46375, -0.27125, 2.1, 0.46375
7.21061110497, -4.57625, 3.94625, 0.93625, -4.57625, 3.94625, 0.93625, -0.41125, 2.19625, 0.735, -0.41125, 2.19625, 0.735
7.22079992294, -4.57625, 3.94625, 0.93625, -4.57625, 3.94625, 0.93625, -0.41125, 2.19625, 0.735, -0.41125, 2.19625, 0.735
7.23100399971, -4.57625, 3.94625, 0.93625, -4.57625, 3.94625, 0.93625, -0.41125, 2.19625, 0.735, -0.41125, 2.19625, 0.735
7.24116611481, -4.71625, 4.0425, 0.8225, -4.71625, 4.0425, 0.8225, -0.07, 1.82875, 0.44625, -0.07, 1.82875, 0.44625
7.25134301186, -4.62875, 3.99, 0.84875, -4.62875, 3.99, 0.84875, -0.21875, 1.89, 0.51625, -0.21875, 1.89, 0.51625
7.26150298119, -4.62875, 3.99, 0.84875, -4.62875, 3.99, 0.84875, -0.21875, 1.89, 0.51625, -0.21875, 1.89, 0.51625
7.27173399925, -4.69, 4.0075, 0.91, -4.69, 4.0075, 0.91, -0.1575, 2.00375, 0.63875, -0.1575, 2.00375, 0.63875
7.28186798096, -4.69, 4.0075, 0.91, -4.69, 4.0075, 0.91, -0.1575, 2.00375, 0.63875, -0.1575, 2.00375, 0.63875
7.29201412201, -4.69, 4.0075, 0.91, -4.69, 4.0075, 0.91, -0.1575, 2.00375, 0.63875, -0.1575, 2.00375, 0.63875
7.30224704742, -4.655, 3.89375, 1.04125, -4.655, 3.89375, 1.04125, -0.28875, 2.0125, 1.05, -0.28875, 2.0125, 1.05
7.31265902519, -4.655, 3.89375, 1.04125, -4.655, 3.89375, 1.04125, -0.28875, 2.0125, 1.05, -0.28875, 2.0125, 1.05
7.32285094261, -4.66375, 3.85, 0.90125, -4.66375, 3.85, 0.90125, -0.11375, 1.9425, 0.28875, -0.11375, 1.9425, 0.28875
7.33304691315, -4.66375, 3.85, 0.90125, -4.66375, 3.85, 0.90125, -0.11375, 1.9425, 0.28875, -0.11375, 1.9425, 0.28875
7.34325194359, -4.64625, 4.0775, 0.72625, -4.64625, 4.0775, 0.72625, -0.35, 2.02125, 0.56875, -0.35, 2.02125, 0.56875
7.35342812538, -4.64625, 4.0775, 0.72625, -4.64625, 4.0775, 0.72625, -0.35, 2.02125, 0.56875, -0.35, 2.02125, 0.56875
7.36359810829, -4.75125, 4.1475, 0.805, -4.75125, 4.1475, 0.805, -0.2975, 1.82, 0.62125, -0.2975, 1.82, 0.62125
7.37384700775, -4.75125, 4.1475, 0.805, -4.75125, 4.1475, 0.805, -0.2975, 1.82, 0.62125, -0.2975, 1.82, 0.62125
7.38403892517, -5.01375, 4.17375, 0.91875, -5.01375, 4.17375, 0.91875, -0.27125, 2.0125, 0.385, -0.27125, 2.0125, 0.385
7.39428496361, -5.01375, 4.17375, 0.91875, -5.01375, 4.17375, 0.91875, -0.27125, 2.0125, 0.385, -0.27125, 2.0125, 0.385
7.4044239521, -4.8475, 3.9025, 1.00625, -4.8475, 3.9025, 1.00625, -0.2275, 1.9425, 0.51625, -0.2275, 1.9425, 0.51625
7.41464996338, -4.8475, 3.9025, 1.00625, -4.8475, 3.9025, 1.00625, -0.2275, 1.9425, 0.51625, -0.2275, 1.9425, 0.51625
7.42511701584, -4.48, 3.71, 0.7875, -4.48, 3.71, 0.7875, -0.07875, 2.1175, 0.30625, -0.07875, 2.1175, 0.30625
7.43530607224, -4.48, 3.71, 0.7875, -4.48, 3.71, 0.7875, -0.07875, 2.1175, 0.30625, -0.07875, 2.1175, 0.30625
7.4454638958, -4.48, 3.71, 0.7875, -4.48, 3.71, 0.7875, -0.07875, 2.1175, 0.30625, -0.07875, 2.1175, 0.30625
7.45572900772, -4.3925, 4.03375, 0.735, -4.3925, 4.03375, 0.735, -0.18375, 1.96, 0.49, -0.18375, 1.96, 0.49
7.46609210968, -4.6375, 3.71875, 0.88375, -4.3925, 4.03375, 0.735, -0.245, 1.9425, 0.65625, -0.18375, 1.96, 0.49
7.47626805305, -4.6375, 3.71875, 0.88375, -4.6375, 3.71875, 0.88375, -0.245, 1.9425, 0.65625, -0.245, 1.9425, 0.65625
7.48643708229, -4.6375, 3.71875, 0.88375, -4.6375, 3.71875, 0.88375, -0.245, 1.9425, 0.65625, -0.245, 1.9425, 0.65625
7.49662995338, -4.66375, 4.20875, 0.6475, -4.66375, 4.20875, 0.6475, -0.46375, 1.75, 0.60375, -0.46375, 1.75, 0.60375
7.5067961216, -4.66375, 4.20875, 0.6475, -4.66375, 4.20875, 0.6475, -0.46375, 1.75, 0.60375, -0.46375, 1.75, 0.60375
7.51697707176, -4.6025, 3.92, 0.7525, -4.6025, 3.92, 0.7525, -0.25375, 1.9425, 0.21, -0.25375, 1.9425, 0.21
7.52717089653, -4.6025, 3.92, 0.7525, -4.6025, 3.92, 0.7525, -0.25375, 1.9425, 0.21, -0.25375, 1.9425, 0.21
7.53740596771, -4.71625, 3.91125, 0.77875, -4.71625, 3.91125, 0.77875, -0.28875, 2.0125, 0.455, -0.28875, 2.0125, 0.455
7.54764294624, -4.71625, 3.91125, 0.77875, -4.71625, 3.91125, 0.77875, -0.28875, 2.0125, 0.455, -0.28875, 2.0125, 0.455
7.55786395073, -4.71625, 3.91125, 0.77875, -4.71625, 3.91125, 0.77875, -0.28875, 2.0125, 0.455, -0.28875, 2.0125, 0.455
7.56808996201, -4.6375, 3.9375, 0.7875, -4.6375, 3.9375, 0.7875, -0.175, 1.86375, 0.44625, -0.175, 1.86375, 0.44625
7.57827401161, -4.6375, 3.9375, 0.7875, -4.6375, 3.9375, 0.7875, -0.175, 1.86375, 0.44625, -0.175, 1.86375, 0.44625
7.58841991425, -4.66375, 3.64875, 0.91, -4.66375, 3.64875, 0.91, -0.1925, 2.065, 0.56, -0.1925, 2.065, 0.56
7.59858989716, -4.66375, 3.64875, 0.91, -4.66375, 3.64875, 0.91, -0.1925, 2.065, 0.56, -0.1925, 2.065, 0.56
7.60887408257, -4.66375, 3.64875, 0.91, -4.66375, 3.64875, 0.91, -0.1925, 2.065, 0.56, -0.1925, 2.065, 0.56
7.61919307709, -4.655, 3.955, 0.72625, -4.655, 3.955, 0.72625, -0.0875, 2.07375, 0.37625, -0.0875, 2.07375, 0.37625
7.62935304642, -4.655, 3.955, 0.72625, -4.655, 3.955, 0.72625, -0.0875, 2.07375, 0.37625, -0.0875, 2.07375, 0.37625
7.63957190514, -4.7425, 3.955, 0.74375, -4.7425, 3.955, 0.74375, -0.105, 1.8725, 0.55125, -0.105, 1.8725, 0.55125
7.64973306656, -4.7425, 3.955, 0.74375, -4.7425, 3.955, 0.74375, -0.105, 1.8725, 0.55125, -0.105, 1.8725, 0.55125
7.65990304947, -4.55, 3.955, 0.805, -4.55, 3.955, 0.805, -0.1225, 1.9775, 0.58625, -0.1225, 1.9775, 0.58625
7.67017197609, -4.55, 3.955, 0.805, -4.55, 3.955, 0.805, -0.1225, 1.9775, 0.58625, -0.1225, 1.9775, 0.58625
7.68043899536, -4.59375, 4.0775, 0.65625, -4.59375, 4.0775, 0.65625, -0.035, 1.86375, 0.4375, -0.035, 1.86375, 0.4375
7.69126605988, -4.59375, 4.0775, 0.65625, -4.59375, 4.0775, 0.65625, -0.035, 1.86375, 0.4375, -0.035, 1.86375, 0.4375
7.70144295692, -4.795, 4.01625, 0.95375, -4.795, 4.01625, 0.95375, -0.35, 1.89875, 0.5425, -0.35, 1.89875, 0.5425
7.71162390709, -4.795, 4.01625, 0.95375, -4.795, 4.01625, 0.95375, -0.35, 1.89875, 0.5425, -0.35, 1.89875, 0.5425
7.72198295593, -4.795, 4.01625, 0.95375, -4.795, 4.01625, 0.95375, -0.35, 1.89875, 0.5425, -0.35, 1.89875, 0.5425
7.73241591454, -4.50625, 3.955, 0.875, -4.50625, 3.955, 0.875, -0.02625, 1.8025, 0.6125, -0.02625, 1.8025, 0.6125
7.74256300926, -4.50625, 3.955, 0.875, -4.50625, 3.955, 0.875, -0.02625, 1.8025, 0.6125, -0.02625, 1.8025, 0.6125
7.75275492668, -4.6725, 4.235, 0.91, -4.6725, 4.235, 0.91, -0.385, 1.75875, 0.2275, -0.385, 1.75875, 0.2275
7.76300311089, -4.6725, 4.235, 0.91, -4.6725, 4.235, 0.91, -0.385, 1.75875, 0.2275, -0.385, 1.75875, 0.2275
7.77318000793, -4.7075, 4.0425, 0.65625, -4.7075, 4.0425, 0.65625, 0.00875, 1.98625, 0.20125, 0.00875, 1.98625, 0.20125
7.7833609581, -4.7075, 4.0425, 0.65625, -4.7075, 4.0425, 0.65625, 0.00875, 1.98625, 0.20125, 0.00875, 1.98625, 0.20125
7.79359197617, -4.4275, 4.1125, 0.805, -4.4275, 4.1125, 0.805, -0.14875, 1.995, 0.58625, -0.14875, 1.995, 0.58625
7.8037610054, -4.4275, 4.1125, 0.805, -4.4275, 4.1125, 0.805, -0.14875, 1.995, 0.58625, -0.14875, 1.995, 0.58625
7.81395792961, -4.5325, 3.78, 0.77, -4.5325, 3.78, 0.77, -0.3325, 1.96, 0.63875, -0.3325, 1.96, 0.63875
7.82442307472, -4.5325, 3.78, 0.77, -4.5325, 3.78, 0.77, -0.3325, 1.96, 0.63875, -0.3325, 1.96, 0.63875
7.83463096619, -4.5325, 3.78, 0.77, -4.5325, 3.78, 0.77, -0.3325, 1.96, 0.63875, -0.3325, 1.96, 0.63875
7.84501290321, -4.48875, 3.7625, 0.74375, -4.48875, 3.7625, 0.74375, -0.09625, 2.03875, 0.72625, -0.09625, 2.03875, 0.72625
7.85516691208, -4.48875, 3.7625, 0.74375, -4.48875, 3.7625, 0.74375, -0.09625, 2.03875, 0.72625, -0.09625, 2.03875, 0.72625
7.86532306671, -4.48, 3.745, 0.72625, -4.48, 3.745, 0.72625, -0.2625, 1.84625, 0.7175, -0.2625, 1.84625, 0.7175
7.87556505203, -4.48, 3.745, 0.72625, -4.48, 3.745, 0.72625, -0.2625, 1.84625, 0.7175, -0.2625, 1.84625, 0.7175
7.88574790955, -4.6025, 3.71, 0.7175, -4.6025, 3.71, 0.7175, -0.07875, 1.96, 0.49875, -0.07875, 1.96, 0.49875
7.89595198631, -4.6025, 3.71, 0.7175, -4.6025, 3.71, 0.7175, -0.07875, 1.96, 0.49875, -0.07875, 1.96, 0.49875
7.90614891052, -4.73375, 3.885, 0.6475, -4.73375, 3.885, 0.6475, -0.48125, 2.1175, 0.56875, -0.48125, 2.1175, 0.56875
7.91657996178, -4.73375, 3.885, 0.6475, -4.73375, 3.885, 0.6475, -0.48125, 2.1175, 0.56875, -0.48125, 2.1175, 0.56875
7.92674899101, -4.76875, 3.96375, 0.72625, -4.76875, 3.96375, 0.72625, -2.205, 2.03, 0.595, -2.205, 2.03, 0.595
7.93691897392, -4.76875, 3.96375, 0.72625, -4.76875, 3.96375, 0.72625, -2.205, 2.03, 0.595, -2.205, 2.03, 0.595
7.94711112976, -4.82125, 3.85875, 0.90125, -4.76875, 3.96375, 0.72625, -2.205, 2.03, 0.595, -2.205, 2.03, 0.595
7.95761394501, -4.82125, 3.85875, 0.90125, -4.82125, 3.85875, 0.90125, -0.42, 1.8375, 0.53375, -0.42, 1.8375, 0.53375
7.96785902977, -4.82125, 3.85875, 0.90125, -4.82125, 3.85875, 0.90125, -0.42, 1.8375, 0.53375, -0.42, 1.8375, 0.53375
7.97808790207, -4.41, 3.84125, 0.805, -4.41, 3.84125, 0.805, -0.20125, 2.17, 0.30625, -0.20125, 2.17, 0.30625
7.9883749485, -4.41, 3.84125, 0.805, -4.41, 3.84125, 0.805, -0.20125, 2.17, 0.30625, -0.20125, 2.17, 0.30625
7.99879598618, -4.3575, 3.885, 0.79625, -4.3575, 3.885, 0.79625, -0.34125, 2.1, 0.4725, -0.34125, 2.1, 0.4725
8.00904393196, -4.4975, 3.8325, 0.62125, -4.4975, 3.8325, 0.62125, -0.315, 2.03875, 0.4025, -0.315, 2.03875, 0.4025
8.01920700073, -4.4975, 3.8325, 0.62125, -4.4975, 3.8325, 0.62125, -0.315, 2.03875, 0.4025, -0.315, 2.03875, 0.4025
8.02953100204, -4.40125, 3.64875, 0.84, -4.40125, 3.64875, 0.84, -0.1925, 1.86375, 0.49, -0.1925, 1.86375, 0.49
8.03977608681, -4.40125, 3.64875, 0.84, -4.40125, 3.64875, 0.84, -0.1925, 1.86375, 0.49, -0.1925, 1.86375, 0.49
8.04998612404, -4.62875, 3.87625, 0.86625, -4.62875, 3.87625, 0.86625, -0.105, 1.93375, 0.5075, -0.105, 1.93375, 0.5075
8.06015205383, -4.62875, 3.87625, 0.86625, -4.62875, 3.87625, 0.86625, -0.105, 1.93375, 0.5075, -0.105, 1.93375, 0.5075
8.07038497925, -4.4975, 4.025, 0.7175, -4.4975, 4.025, 0.7175, -0.20125, 2.03, 0.35875, -0.20125, 2.03, 0.35875
8.08054494858, -4.4975, 4.025, 0.7175, -4.4975, 4.025, 0.7175, -0.20125, 2.03, 0.35875, -0.20125, 2.03, 0.35875
8.09072995186, -4.5675, 3.99, 0.7875, -4.5675, 3.99, 0.7875, -0.21875, 1.89, 0.49875, -0.21875, 1.89, 0.49875
8.10101699829, -4.5675, 3.99, 0.7875, -4.5675, 3.99, 0.7875, -0.21875, 1.89, 0.49875, -0.21875, 1.89, 0.49875
8.11154294014, -4.48, 3.87625, 0.70875, -4.48, 3.87625, 0.70875, -0.35875, 1.925, 0.28875, -0.35875, 1.925, 0.28875
8.12170910835, -4.48, 3.87625, 0.70875, -4.48, 3.87625, 0.70875, -0.35875, 1.925, 0.28875, -0.35875, 1.925, 0.28875
8.13186597824, -4.76, 4.03375, 0.7175, -4.76, 4.03375, 0.7175, -0.11375, 1.93375, 0.49875, -0.11375, 1.93375, 0.49875
8.14205598831, -4.76, 4.03375, 0.7175, -4.76, 4.03375, 0.7175, -0.11375, 1.93375, 0.49875, -0.11375, 1.93375, 0.49875
8.15221405029, -4.445, 3.84125, 0.6825, -4.445, 3.84125, 0.6825, -0.28, 1.68875, 0.5425, -0.28, 1.68875, 0.5425
8.16241312027, -4.445, 3.84125, 0.6825, -4.445, 3.84125, 0.6825, -0.28, 1.68875, 0.5425, -0.28, 1.68875, 0.5425
8.17262101173, -4.5325, 4.12125, 0.6475, -4.5325, 4.12125, 0.6475, -0.14, 1.855, 0.525, -0.14, 1.855, 0.525
8.18280291557, -4.5325, 4.12125, 0.6475, -4.5325, 4.12125, 0.6475, -0.14, 1.855, 0.525, -0.14, 1.855, 0.525
8.19296908379, -4.47125, 3.8325, 0.8575, -4.47125, 3.8325, 0.8575, -0.09625, 1.6625, 0.49875, -0.09625, 1.6625, 0.49875
8.20313191414, -4.47125, 3.8325, 0.8575, -4.47125, 3.8325, 0.8575, -0.09625, 1.6625, 0.49875, -0.09625, 1.6625, 0.49875
8.21331095695, -4.54125, 3.85, 0.9275, -4.54125, 3.85, 0.9275, -0.385, 1.93375, 0.3325, -0.385, 1.93375, 0.3325
8.22353005409, -4.54125, 3.85, 0.9275, -4.54125, 3.85, 0.9275, -0.385, 1.93375, 0.3325, -0.385, 1.93375, 0.3325
8.23373198509, -4.73375, 3.92, 0.86625, -4.73375, 3.92, 0.86625, -0.2275, 1.89, 0.4025, -0.2275, 1.89, 0.4025
8.2438750267, -4.73375, 3.92, 0.86625, -4.73375, 3.92, 0.86625, -0.2275, 1.89, 0.4025, -0.2275, 1.89, 0.4025
8.2541539669, -4.73375, 3.92, 0.86625, -4.73375, 3.92, 0.86625, -0.2275, 1.89, 0.4025, -0.2275, 1.89, 0.4025
8.26457595825, -4.7075, 3.955, 0.805, -4.7075, 3.955, 0.805, -0.25375, 2.0475, 0.5775, -0.25375, 2.0475, 0.5775
8.27476191521, -4.7075, 3.955, 0.805, -4.7075, 3.955, 0.805, -0.25375, 2.0475, 0.5775, -0.25375, 2.0475, 0.5775
8.28498792648, -4.54125, 3.80625, 0.90125, -4.54125, 3.80625, 0.90125, -0.4025, 1.88125, 0.44625, -0.4025, 1.88125, 0.44625
8.29555511475, -4.76875, 4.0075, 0.55125, -4.76875, 4.0075, 0.55125, -0.13125, 1.75, 0.77, -0.13125, 1.75, 0.77
8.30628800392, -4.76875, 4.0075, 0.55125, -4.76875, 4.0075, 0.55125, -0.13125, 1.75, 0.77, -0.13125, 1.75, 0.77
8.3164601326, -4.76875, 4.0075, 0.55125, -4.76875, 4.0075, 0.55125, -0.13125, 1.75, 0.77, -0.13125, 1.75, 0.77
8.32731294632, -4.64625, 4.0425, 0.84, -4.64625, 4.0425, 0.84, -0.37625, 1.89, 0.69125, -0.37625, 1.89, 0.69125
8.3376390934, -4.64625, 4.0425, 0.84, -4.64625, 4.0425, 0.84, -0.37625, 1.89, 0.69125, -0.37625, 1.89, 0.69125
8.34782505035, -4.4975, 3.9725, 0.72625, -4.4975, 3.9725, 0.72625, -0.2625, 1.89, 0.46375, -0.2625, 1.89, 0.46375
8.35796809196, -4.4975, 3.9725, 0.72625, -4.4975, 3.9725, 0.72625, -0.2625, 1.89, 0.46375, -0.2625, 1.89, 0.46375
8.36820197105, -4.48875, 3.92, 0.65625, -4.48875, 3.92, 0.65625, -0.175, 1.9075, 0.21, -0.175, 1.9075, 0.21
8.37904000282, -4.57625, 3.8675, 0.5775, -4.48875, 3.92, 0.65625, -0.56, 1.65375, 0.58625, -0.175, 1.9075, 0.21
8.38923192024, -4.57625, 3.8675, 0.5775, -4.57625, 3.8675, 0.5775, -0.56, 1.65375, 0.58625, -0.56, 1.65375, 0.58625
8.39944911003, -4.4975, 3.675, 0.665, -4.4975, 3.675, 0.665, -0.07875, 1.89, 0.48125, -0.07875, 1.89, 0.48125
8.40970802307, -4.4975, 3.675, 0.665, -4.4975, 3.675, 0.665, -0.07875, 1.89, 0.48125, -0.07875, 1.89, 0.48125
8.41989398003, -4.57625, 3.94625, 0.9275, -4.57625, 3.94625, 0.9275, -0.3325, 1.7325, 0.49875, -0.3325, 1.7325, 0.49875
8.43007898331, -4.57625, 3.94625, 0.9275, -4.57625, 3.94625, 0.9275, -0.3325, 1.7325, 0.49875, -0.3325, 1.7325, 0.49875
8.44028997421, -4.57625, 3.94625, 0.9275, -4.57625, 3.94625, 0.9275, -0.3325, 1.7325, 0.49875, -0.3325, 1.7325, 0.49875
8.45055103302, -4.41875, 3.92, 0.7, -4.41875, 3.92, 0.7, -0.27125, 1.82, 0.4375, -0.27125, 1.82, 0.4375
8.46071910858, -4.66375, 3.78, 0.81375, -4.66375, 3.78, 0.81375, -0.34125, 1.68, 0.665, -0.34125, 1.68, 0.665
8.47089910507, -4.66375, 3.78, 0.81375, -4.66375, 3.78, 0.81375, -0.34125, 1.68, 0.665, -0.34125, 1.68, 0.665
8.48111796379, -4.82125, 3.91125, 0.74375, -4.82125, 3.91125, 0.74375, -0.48125, 1.61, 0.35875, -0.48125, 1.61, 0.35875
8.49131798744, -4.82125, 3.91125, 0.74375, -4.82125, 3.91125, 0.74375, -0.48125, 1.61, 0.35875, -0.48125, 1.61, 0.35875
8.50154089928, -4.55875, 3.84125, 0.79625, -4.55875, 3.84125, 0.79625, -0.13125, 2.0825, 0.46375, -0.13125, 2.0825, 0.46375
8.51209902763, -4.55875, 3.84125, 0.79625, -4.55875, 3.84125, 0.79625, -0.13125, 2.0825, 0.46375, -0.13125, 2.0825, 0.46375
8.52237296104, -4.71625, 3.955, 0.63875, -4.71625, 3.955, 0.63875, -0.18375, 2.065, 0.595, -0.18375, 2.065, 0.595
8.53253507614, -4.71625, 3.955, 0.63875, -4.71625, 3.955, 0.63875, -0.18375, 2.065, 0.595, -0.18375, 2.065, 0.595
8.54270195961, -4.5675, 3.92875, 0.84875, -4.5675, 3.92875, 0.84875, -0.1925, 2.00375, 0.41125, -0.1925, 2.00375, 0.41125
8.55291795731, -4.5675, 3.92875, 0.84875, -4.5675, 3.92875, 0.84875, -0.1925, 2.00375, 0.41125, -0.1925, 2.00375, 0.41125
8.56306910515, -4.5675, 3.92875, 0.84875, -4.5675, 3.92875, 0.84875, -0.1925, 2.00375, 0.41125, -0.1925, 2.00375, 0.41125
8.57323312759, -4.76, 4.05125, 0.91875, -4.76, 4.05125, 0.91875, -0.2625, 2.03, 0.34125, -0.2625, 2.03, 0.34125
8.58364892006, -4.5325, 3.94625, 0.875, -4.76, 4.05125, 0.91875, -0.51625, 1.81125, 0.53375, -0.2625, 2.03, 0.34125
8.59405398369, -4.5325, 3.94625, 0.875, -4.5325, 3.94625, 0.875, -0.51625, 1.81125, 0.53375, -0.51625, 1.81125, 0.53375
8.60461592674, -4.515, 4.01625, 0.79625, -4.515, 4.01625, 0.79625, -0.3325, 1.9075, 0.46375, -0.3325, 1.9075, 0.46375
8.6148750782, -4.515, 4.01625, 0.79625, -4.515, 4.01625, 0.79625, -0.3325, 1.9075, 0.46375, -0.3325, 1.9075, 0.46375
8.62504196167, -4.515, 4.01625, 0.79625, -4.515, 4.01625, 0.79625, -0.3325, 1.9075, 0.46375, -0.3325, 1.9075, 0.46375
8.63532495499, -4.66375, 3.84125, 0.62125, -4.66375, 3.84125, 0.62125, -0.14875, 1.925, 0.455, -0.14875, 1.925, 0.455
8.64578294754, -4.68125, 3.78875, 0.8575, -4.66375, 3.84125, 0.62125, -0.20125, 1.91625, 0.385, -0.14875, 1.925, 0.455
8.65630292892, -4.68125, 3.78875, 0.8575, -4.68125, 3.78875, 0.8575, -0.20125, 1.91625, 0.385, -0.20125, 1.91625, 0.385
8.66647410393, -4.68125, 3.78875, 0.8575, -4.68125, 3.78875, 0.8575, -0.20125, 1.91625, 0.385, -0.20125, 1.91625, 0.385
8.67670607567, -4.6025, 3.92, 0.9275, -4.6025, 3.92, 0.9275, -0.30625, 1.9775, 0.455, -0.30625, 1.9775, 0.455
8.68730211258, -4.445, 3.8675, 0.86625, -4.6025, 3.92, 0.9275, -0.16625, 2.03, 0.63, -0.30625, 1.9775, 0.455
8.6974670887, -4.445, 3.8675, 0.86625, -4.445, 3.8675, 0.86625, -0.16625, 2.03, 0.63, -0.16625, 2.03, 0.63
8.70766210556, -4.445, 3.8675, 0.86625, -4.445, 3.8675, 0.86625, -0.16625, 2.03, 0.63, -0.16625, 2.03, 0.63
8.71830391884, -4.725, 3.92, 0.65625, -4.725, 3.92, 0.65625, -0.0175, 1.74125, 0.65625, -0.0175, 1.74125, 0.65625
8.72859597206, -4.48875, 3.92875, 0.88375, -4.48875, 3.92875, 0.88375, -0.3325, 1.9075, 0.315, -0.3325, 1.9075, 0.315
8.73899292946, -4.48875, 3.92875, 0.88375, -4.48875, 3.92875, 0.88375, -0.3325, 1.9075, 0.315, -0.3325, 1.9075, 0.315
8.74940896034, -4.83, 4.0775, 0.83125, -4.83, 4.0775, 0.83125, -0.48125, 1.96, 0.7525, -0.48125, 1.96, 0.7525
8.75987696648, -4.83, 4.0775, 0.83125, -4.83, 4.0775, 0.83125, -0.48125, 1.96, 0.7525, -0.48125, 1.96, 0.7525
8.77004790306, -4.71625, 4.10375, 0.7875, -4.71625, 4.10375, 0.7875, -0.23625, 2.07375, 0.44625, -0.23625, 2.07375, 0.44625
8.78071904182, -4.71625, 4.10375, 0.7875, -4.71625, 4.10375, 0.7875, -0.23625, 2.07375, 0.44625, -0.23625, 2.07375, 0.44625
8.79092812538, -4.61125, 3.85, 0.8225, -4.61125, 3.85, 0.8225, 0.04375, 2.0475, 0.7525, 0.04375, 2.0475, 0.7525
8.8011341095, -4.61125, 3.85, 0.8225, -4.61125, 3.85, 0.8225, 0.04375, 2.0475, 0.7525, 0.04375, 2.0475, 0.7525
8.8113360405, -4.61125, 3.85, 0.8225, -4.61125, 3.85, 0.8225, 0.04375, 2.0475, 0.7525, 0.04375, 2.0475, 0.7525
8.82160711288, -4.6725, 4.06, 0.6475, -4.6725, 4.06, 0.6475, 0.11375, 1.5925, 0.30625, 0.11375, 1.5925, 0.30625
8.83196592331, -4.54125, 3.57, 0.88375, -4.6725, 4.06, 0.6475, -0.245, 1.98625, 0.49875, -0.245, 1.98625, 0.49875
8.84250307083, -4.54125, 3.57, 0.88375, -4.54125, 3.57, 0.88375, -0.245, 1.98625, 0.49875, -0.245, 1.98625, 0.49875
8.85263299942, -4.48, 3.78, 0.69125, -4.54125, 3.57, 0.88375, -0.35, 1.995, 0.63875, -0.245, 1.98625, 0.49875
8.86281991005, -4.48, 3.78, 0.69125, -4.48, 3.78, 0.69125, -0.35, 1.995, 0.63875, -0.35, 1.995, 0.63875
8.87300992012, -4.48, 3.78, 0.69125, -4.48, 3.78, 0.69125, -0.35, 1.995, 0.63875, -0.35, 1.995, 0.63875
8.88320493698, -4.80375, 3.9025, 0.805, -4.80375, 3.9025, 0.805, -0.13125, 1.81125, 0.37625, -0.13125, 1.81125, 0.37625
8.89342904091, -4.80375, 3.9025, 0.805, -4.80375, 3.9025, 0.805, -0.13125, 1.81125, 0.37625, -0.13125, 1.81125, 0.37625
8.90364599228, -4.5675, 3.84125, 0.77, -4.5675, 3.84125, 0.77, -0.21, 2.17, 0.44625, -0.21, 2.17, 0.44625
8.91380310059, -4.5675, 3.84125, 0.77, -4.5675, 3.84125, 0.77, -0.21, 2.17, 0.44625, -0.21, 2.17, 0.44625
8.92403006554, -4.75125, 4.03375, 0.93625, -4.75125, 4.03375, 0.93625, -0.18375, 1.9075, 0.56, -0.18375, 1.9075, 0.56
8.93423104286, -4.75125, 4.03375, 0.93625, -4.75125, 4.03375, 0.93625, -0.18375, 1.9075, 0.56, -0.18375, 1.9075, 0.56
8.94439411163, -4.5675, 3.98125, 0.67375, -4.5675, 3.98125, 0.67375, -0.09625, 1.98625, 0.41125, -0.09625, 1.98625, 0.41125
8.95463299751, -4.5675, 3.98125, 0.67375, -4.5675, 3.98125, 0.67375, -0.09625, 1.98625, 0.41125, -0.09625, 1.98625, 0.41125
8.96483898163, -4.87375, 3.91125, 1.04125, -4.87375, 3.91125, 1.04125, 0.0875, 2.19625, 0.51625, 0.0875, 2.19625, 0.51625
8.97505307198, -4.87375, 3.91125, 1.04125, -4.87375, 3.91125, 1.04125, 0.0875, 2.19625, 0.51625, 0.0875, 2.19625, 0.51625
8.98523902893, -4.83, 3.96375, 0.51625, -4.83, 3.96375, 0.51625, -0.315, 1.82875, 0.35875, -0.315, 1.82875, 0.35875
8.99542403221, -4.83, 3.96375, 0.51625, -4.83, 3.96375, 0.51625, -0.315, 1.82875, 0.35875, -0.315, 1.82875, 0.35875
9.00566411018, -4.5325, 4.10375, 0.60375, -4.5325, 4.10375, 0.60375, -0.39375, 2.0125, 0.62125, -0.39375, 2.0125, 0.62125
9.01589989662, -4.5325, 4.10375, 0.60375, -4.5325, 4.10375, 0.60375, -0.39375, 2.0125, 0.62125, -0.39375, 2.0125, 0.62125
9.0260488987, -4.57625, 3.71875, 0.70875, -4.57625, 3.71875, 0.70875, -0.14875, 1.96, 0.3675, -0.14875, 1.96, 0.3675
9.0362200737, -4.57625, 3.71875, 0.70875, -4.57625, 3.71875, 0.70875, -0.14875, 1.96, 0.3675, -0.14875, 1.96, 0.3675
9.04645395279, -4.55875, 3.8675, 0.945, -4.55875, 3.8675, 0.945, -0.175, 1.8375, 0.595, -0.175, 1.8375, 0.595
9.05680012703, -4.55875, 3.8675, 0.945, -4.55875, 3.8675, 0.945, -0.175, 1.8375, 0.595, -0.175, 1.8375, 0.595
9.06698799133, -4.83, 4.01625, 0.6825, -4.83, 4.01625, 0.6825, -0.07875, 2.03, 0.5075, -0.07875, 2.03, 0.5075
9.07719898224, -4.83, 4.01625, 0.6825, -4.83, 4.01625, 0.6825, -0.07875, 2.03, 0.5075, -0.07875, 2.03, 0.5075
9.08748602867, -4.76, 3.7625, 0.7175, -4.76, 3.7625, 0.7175, -0.21875, 1.89875, 0.58625, -0.21875, 1.89875, 0.58625
9.09769010544, -4.76, 3.7625, 0.7175, -4.76, 3.7625, 0.7175, -0.21875, 1.89875, 0.58625, -0.21875, 1.89875, 0.58625
9.10785412788, -4.47125, 3.9375, 0.8225, -4.47125, 3.9375, 0.8225, -0.11375, 2.09125, 0.455, -0.11375, 2.09125, 0.455
9.11801695824, -4.47125, 3.9375, 0.8225, -4.47125, 3.9375, 0.8225, -0.11375, 2.09125, 0.455, -0.11375, 2.09125, 0.455
9.12830495834, -4.71625, 3.7625, 0.735, -4.71625, 3.7625, 0.735, -0.28, 1.91625, 0.6475, -0.28, 1.91625, 0.6475
9.13861012459, -4.71625, 3.7625, 0.735, -4.71625, 3.7625, 0.735, -0.28, 1.91625, 0.6475, -0.28, 1.91625, 0.6475
9.14895105362, -4.655, 4.0775, 0.735, -4.655, 4.0775, 0.735, -0.28, 1.89875, 0.63875, -0.28, 1.89875, 0.63875
9.15912008286, -4.655, 4.0775, 0.735, -4.655, 4.0775, 0.735, -0.28, 1.89875, 0.63875, -0.28, 1.89875, 0.63875
9.16930890083, -4.655, 4.05125, 0.84875, -4.655, 4.05125, 0.84875, -0.09625, 1.74125, 0.49, -0.09625, 1.74125, 0.49
9.17945408821, -4.655, 4.05125, 0.84875, -4.655, 4.05125, 0.84875, -0.09625, 1.74125, 0.49, -0.09625, 1.74125, 0.49
9.18963313103, -4.9175, 3.78875, 0.6475, -4.9175, 3.78875, 0.6475, -0.245, 2.00375, 0.58625, -0.245, 2.00375, 0.58625
9.19983506203, -4.9175, 3.78875, 0.6475, -4.9175, 3.78875, 0.6475, -0.245, 2.00375, 0.58625, -0.245, 2.00375, 0.58625
9.2100880146, -4.33125, 3.9725, 0.77, -4.33125, 3.9725, 0.77, -0.2625, 2.07375, 0.525, -0.2625, 2.07375, 0.525
9.22033810616, -4.33125, 3.9725, 0.77, -4.33125, 3.9725, 0.77, -0.2625, 2.07375, 0.525, -0.2625, 2.07375, 0.525
9.23066711426, -4.5325, 3.96375, 1.16375, -4.5325, 3.96375, 1.16375, -0.21875, 1.81125, 0.28, -0.21875, 1.81125, 0.28
9.24080204964, -4.5325, 3.96375, 1.16375, -4.5325, 3.96375, 1.16375, -0.21875, 1.81125, 0.28, -0.21875, 1.81125, 0.28
9.25097298622, -4.52375, 3.84125, 0.63, -4.52375, 3.84125, 0.63, -0.11375, 1.855, 0.44625, -0.11375, 1.855, 0.44625
9.26112890244, -4.52375, 3.84125, 0.63, -4.52375, 3.84125, 0.63, -0.11375, 1.855, 0.44625, -0.11375, 1.855, 0.44625
9.27129507065, -4.52375, 3.84125, 0.63, -4.52375, 3.84125, 0.63, -0.11375, 1.855, 0.44625, -0.11375, 1.855, 0.44625
9.28150510788, -4.94375, 4.0775, 0.665, -4.94375, 4.0775, 0.665, -0.1925, 1.79375, 0.5075, -0.1925, 1.79375, 0.5075
9.29170799255, -4.54125, 3.91125, 0.875, -4.54125, 3.91125, 0.875, -0.175, 1.9075, 0.595, -0.175, 1.9075, 0.595
9.30188512802, -4.54125, 3.91125, 0.875, -4.54125, 3.91125, 0.875, -0.175, 1.9075, 0.595, -0.175, 1.9075, 0.595
9.31222605705, -4.54125, 3.91125, 0.875, -4.54125, 3.91125, 0.875, -0.175, 1.9075, 0.595, -0.175, 1.9075, 0.595
9.32247209549, -4.80375, 3.99, 0.7875, -4.80375, 3.99, 0.7875, -0.14875, 2.03, 0.3675, -0.14875, 2.03, 0.3675
9.33262896538, -4.80375, 3.99, 0.7875, -4.80375, 3.99, 0.7875, -0.14875, 2.03, 0.3675, -0.14875, 2.03, 0.3675
9.34278297424, -4.69875, 3.80625, 0.91, -4.69875, 3.80625, 0.91, -0.5075, 1.9425, 0.67375, -0.5075, 1.9425, 0.67375
9.3530421257, -4.69875, 3.80625, 0.91, -4.69875, 3.80625, 0.91, -0.5075, 1.9425, 0.67375, -0.5075, 1.9425, 0.67375
9.3635289669, -4.76875, 4.10375, 0.9625, -4.76875, 4.10375, 0.9625, -0.0875, 1.75, 0.37625, -0.0875, 1.75, 0.37625
9.3737449646, -4.76875, 4.10375, 0.9625, -4.76875, 4.10375, 0.9625, -0.0875, 1.75, 0.37625, -0.0875, 1.75, 0.37625
9.38393592834, -4.7425, 3.94625, 1.05875, -4.7425, 3.94625, 1.05875, -0.175, 1.995, 0.53375, -0.175, 1.995, 0.53375
9.39420890808, -4.7425, 3.94625, 1.05875, -4.7425, 3.94625, 1.05875, -0.175, 1.995, 0.53375, -0.175, 1.995, 0.53375
9.40440392494, -5.01375, 3.8675, 0.91, -5.01375, 3.8675, 0.91, -0.2975, 2.02125, 0.41125, -0.2975, 2.02125, 0.41125
9.41457509995, -5.01375, 3.8675, 0.91, -5.01375, 3.8675, 0.91, -0.2975, 2.02125, 0.41125, -0.2975, 2.02125, 0.41125
9.42478990555, -4.5675, 3.9725, 0.84875, -4.5675, 3.9725, 0.84875, -0.42875, 2.0125, 0.70875, -0.42875, 2.0125, 0.70875
9.43500304222, -4.5675, 3.9725, 0.84875, -4.5675, 3.9725, 0.84875, -0.42875, 2.0125, 0.70875, -0.42875, 2.0125, 0.70875
9.44516301155, -4.52375, 3.92, 0.76125, -4.52375, 3.92, 0.76125, -0.11375, 1.91625, 0.4375, -0.11375, 1.91625, 0.4375
9.45534992218, -4.52375, 3.92, 0.76125, -4.52375, 3.92, 0.76125, -0.11375, 1.91625, 0.4375, -0.11375, 1.91625, 0.4375
9.46551299095, -4.52375, 3.92, 0.76125, -4.52375, 3.92, 0.76125, -0.11375, 1.91625, 0.4375, -0.11375, 1.91625, 0.4375
9.47577691078, -4.7775, 3.9725, 0.5425, -4.7775, 3.9725, 0.5425, -0.3325, 2.205, 0.62125, -0.3325, 2.205, 0.62125
9.48590898514, -4.7775, 3.9725, 0.5425, -4.7775, 3.9725, 0.5425, -0.3325, 2.205, 0.62125, -0.3325, 2.205, 0.62125
9.49608302116, -4.64625, 3.9375, 0.84875, -4.64625, 3.9375, 0.84875, -0.23625, 1.82875, 0.48125, -0.23625, 1.82875, 0.48125
9.50638890266, -4.64625, 3.9375, 0.84875, -4.64625, 3.9375, 0.84875, -0.23625, 1.82875, 0.48125, -0.23625, 1.82875, 0.48125
9.51674103737, -4.7075, 3.9375, 0.74375, -4.7075, 3.9375, 0.74375, -0.02625, 1.855, 0.3325, -0.02625, 1.855, 0.3325
9.52690696716, -4.7075, 3.9375, 0.74375, -4.7075, 3.9375, 0.74375, -0.02625, 1.855, 0.3325, -0.02625, 1.855, 0.3325
9.537099123, -4.61125, 3.91125, 0.6475, -4.7075, 3.9375, 0.74375, -0.30625, 1.89875, 0.595, -0.30625, 1.89875, 0.595
9.54729509354, -4.61125, 3.91125, 0.6475, -4.61125, 3.91125, 0.6475, -0.30625, 1.89875, 0.595, -0.30625, 1.89875, 0.595
9.55745697021, -4.57625, 3.99875, 0.74375, -4.57625, 3.99875, 0.74375, -0.14, 1.75, 0.51625, -0.14, 1.75, 0.51625
9.56764006615, -4.57625, 3.99875, 0.74375, -4.57625, 3.99875, 0.74375, -0.14, 1.75, 0.51625, -0.14, 1.75, 0.51625
9.57809209824, -4.75125, 4.06875, 0.65625, -4.75125, 4.06875, 0.65625, -0.13125, 2.135, 0.2275, -0.13125, 2.135, 0.2275
9.58831691742, -4.75125, 4.06875, 0.65625, -4.75125, 4.06875, 0.65625, -0.13125, 2.135, 0.2275, -0.13125, 2.135, 0.2275
9.598498106, -4.7775, 3.89375, 0.6825, -4.7775, 3.89375, 0.6825, -0.2625, 2.02125, 0.48125, -0.2625, 2.02125, 0.48125
9.60867500305, -4.7775, 3.89375, 0.6825, -4.7775, 3.89375, 0.6825, -0.2625, 2.02125, 0.48125, -0.2625, 2.02125, 0.48125
9.61888194084, -4.62, 3.885, 1.00625, -4.62, 3.885, 1.00625, -0.3325, 1.8375, 0.42, -0.3325, 1.8375, 0.42
9.62908601761, -4.62, 3.885, 1.00625, -4.62, 3.885, 1.00625, -0.3325, 1.8375, 0.42, -0.3325, 1.8375, 0.42
9.63924098015, -4.48875, 3.84125, 0.8575, -4.48875, 3.84125, 0.8575, -0.28875, 1.6275, 0.5075, -0.28875, 1.6275, 0.5075
9.64944005013, -4.48875, 3.84125, 0.8575, -4.48875, 3.84125, 0.8575, -0.28875, 1.6275, 0.5075, -0.28875, 1.6275, 0.5075
9.65965890884, -4.8825, 4.025, 0.945, -4.8825, 4.025, 0.945, -0.23625, 1.7325, 0.51625, -0.23625, 1.7325, 0.51625
9.66992402077, -4.8825, 4.025, 0.945, -4.8825, 4.025, 0.945, -0.23625, 1.7325, 0.51625, -0.23625, 1.7325, 0.51625
9.68010210991, -4.7775, 3.92, 0.76125, -4.7775, 3.92, 0.76125, -0.3325, 1.9075, 0.48125, -0.3325, 1.9075, 0.48125
9.69031095505, -4.7775, 3.92, 0.76125, -4.7775, 3.92, 0.76125, -0.3325, 1.9075, 0.48125, -0.3325, 1.9075, 0.48125
9.70053195953, -4.7775, 3.92, 0.76125, -4.7775, 3.92, 0.76125, -0.3325, 1.9075, 0.48125, -0.3325, 1.9075, 0.48125
9.71074104309, -4.80375, 4.05125, 0.8925, -4.80375, 4.05125, 0.8925, -0.55125, 1.9775, 0.44625, -0.55125, 1.9775, 0.44625
9.72093296051, -4.55875, 3.98125, 0.665, -4.55875, 3.98125, 0.665, -0.20125, 1.8375, 0.42875, -0.20125, 1.8375, 0.42875
9.73117995262, -4.55875, 3.98125, 0.665, -4.55875, 3.98125, 0.665, -0.20125, 1.8375, 0.42875, -0.20125, 1.8375, 0.42875
9.74159407616, -4.655, 3.9025, 0.76125, -4.655, 3.9025, 0.76125, -0.385, 1.9075, 0.21875, -0.385, 1.9075, 0.21875
9.75179290771, -4.655, 3.9025, 0.76125, -4.655, 3.9025, 0.76125, -0.385, 1.9075, 0.21875, -0.385, 1.9075, 0.21875
9.76194810867, -4.76, 4.01625, 0.7875, -4.76, 4.01625, 0.7875, -0.37625, 1.75, 0.81375, -0.37625, 1.75, 0.81375
9.77211594582, -4.76, 4.01625, 0.7875, -4.76, 4.01625, 0.7875, -0.37625, 1.75, 0.81375, -0.37625, 1.75, 0.81375
9.78229403496, -4.66375, 4.0075, 0.65625, -4.66375, 4.0075, 0.65625, -0.07, 1.855, 0.72625, -0.07, 1.855, 0.72625
9.79248905182, -4.66375, 4.0075, 0.65625, -4.66375, 4.0075, 0.65625, -0.07, 1.855, 0.72625, -0.07, 1.855, 0.72625
9.80265307426, -4.8825, 4.0425, 0.63875, -4.8825, 4.0425, 0.63875, -0.315, 2.065, 0.42, -0.315, 2.065, 0.42
9.8128259182, -4.8825, 4.0425, 0.63875, -4.8825, 4.0425, 0.63875, -0.315, 2.065, 0.42, -0.315, 2.065, 0.42
9.82300591469, -4.6375, 3.815, 0.8925, -4.6375, 3.815, 0.8925, -0.6125, 2.07375, 0.4725, -0.6125, 2.07375, 0.4725
9.83315896988, -4.6375, 3.815, 0.8925, -4.6375, 3.815, 0.8925, -0.6125, 2.07375, 0.4725, -0.6125, 2.07375, 0.4725
9.8436319828, -4.8125, 3.885, 0.875, -4.8125, 3.885, 0.875, -0.0525, 1.8725, 0.35875, -0.0525, 1.8725, 0.35875
9.8541738987, -4.8125, 3.885, 0.875, -4.8125, 3.885, 0.875, -0.0525, 1.8725, 0.35875, -0.0525, 1.8725, 0.35875
9.86456108093, -4.6725, 3.8325, 0.6825, -4.6725, 3.8325, 0.6825, -0.21875, 1.785, 0.35875, -0.21875, 1.785, 0.35875
9.87476396561, -4.6725, 3.8325, 0.6825, -4.6725, 3.8325, 0.6825, -0.21875, 1.785, 0.35875, -0.21875, 1.785, 0.35875
9.88494491577, -4.4975, 3.85875, 0.84, -4.4975, 3.85875, 0.84, -0.3675, 1.75875, 0.3325, -0.3675, 1.75875, 0.3325
9.89520406723, -4.4975, 3.85875, 0.84, -4.4975, 3.85875, 0.84, -0.3675, 1.75875, 0.3325, -0.3675, 1.75875, 0.3325
9.90537500381, -4.55875, 3.745, 0.6125, -4.55875, 3.745, 0.6125, -0.21875, 1.98625, 0.25375, -0.21875, 1.98625, 0.25375
9.91555905342, -4.55875, 3.745, 0.6125, -4.55875, 3.745, 0.6125, -0.21875, 1.98625, 0.25375, -0.21875, 1.98625, 0.25375
9.92578411102, -4.45375, 3.70125, 0.805, -4.45375, 3.70125, 0.805, -0.37625, 1.89875, 0.41125, -0.37625, 1.89875, 0.41125
9.93655800819, -4.45375, 3.70125, 0.805, -4.45375, 3.70125, 0.805, -0.37625, 1.89875, 0.41125, -0.37625, 1.89875, 0.41125
9.94670891762, -4.69875, 4.12125, 0.665, -4.69875, 4.12125, 0.665, -0.48125, 2.07375, 0.42, -0.48125, 2.07375, 0.42
9.95685100555, -4.69875, 4.12125, 0.665, -4.69875, 4.12125, 0.665, -0.48125, 2.07375, 0.42, -0.48125, 2.07375, 0.42
9.96710395813, -4.80375, 3.85, 0.83125, -4.80375, 3.85, 0.83125, -0.32375, 1.8725, 0.49, -0.32375, 1.8725, 0.49
9.97765612602, -4.80375, 3.85, 0.83125, -4.80375, 3.85, 0.83125, -0.32375, 1.8725, 0.49, -0.32375, 1.8725, 0.49
9.98784399033, -4.62875, 3.9025, 0.63875, -4.62875, 3.9025, 0.63875, -0.35, 1.82, 0.55125, -0.35, 1.82, 0.55125
9.99799895287, -4.62875, 3.9025, 0.63875, -4.62875, 3.9025, 0.63875, -0.35, 1.82, 0.55125, -0.35, 1.82, 0.55125
10.0081880093, -4.57625, 4.0075, 0.7525, -4.57625, 4.0075, 0.7525, -0.25375, 1.93375, 0.53375, -0.25375, 1.93375, 0.53375
10.0183410645, -4.57625, 4.0075, 0.7525, -4.57625, 4.0075, 0.7525, -0.25375, 1.93375, 0.53375, -0.25375, 1.93375, 0.53375
10.0284891129, -4.38375, 4.05125, 0.84875, -4.38375, 4.05125, 0.84875, -0.16625, 2.02125, 0.53375, -0.16625, 2.02125, 0.53375
10.038736105, -4.38375, 4.05125, 0.84875, -4.38375, 4.05125, 0.84875, -0.16625, 2.02125, 0.53375, -0.16625, 2.02125, 0.53375
10.0491878986, -4.655, 3.885, 0.77875, -4.655, 3.885, 0.77875, -0.51625, 2.1525, 0.35, -0.51625, 2.1525, 0.35
10.0593259335, -4.655, 3.885, 0.77875, -4.655, 3.885, 0.77875, -0.51625, 2.1525, 0.35, -0.51625, 2.1525, 0.35
10.0694921017, -4.68125, 3.8325, 0.81375, -4.68125, 3.8325, 0.81375, -0.315, 1.68875, 0.49, -0.315, 1.68875, 0.49
10.0796339512, -4.68125, 3.8325, 0.81375, -4.68125, 3.8325, 0.81375, -0.315, 1.68875, 0.49, -0.315, 1.68875, 0.49
10.090018034, -4.7075, 4.01625, 0.805, -4.7075, 4.01625, 0.805, -0.4025, 2.10875, 0.44625, -0.4025, 2.10875, 0.44625
10.1003990173, -4.7075, 4.01625, 0.805, -4.7075, 4.01625, 0.805, -0.4025, 2.10875, 0.44625, -0.4025, 2.10875, 0.44625
10.1106131077, -4.7075, 4.01625, 0.805, -4.7075, 4.01625, 0.805, -0.4025, 2.10875, 0.44625, -0.4025, 2.10875, 0.44625
10.1208889484, -4.8825, 3.71875, 0.945, -4.8825, 3.71875, 0.945, -0.18375, 2.1, 0.3325, -0.18375, 2.1, 0.3325
10.1311020851, -4.7425, 3.605, 0.72625, -4.7425, 3.605, 0.72625, -0.23625, 1.96, 0.65625, -0.23625, 1.96, 0.65625
10.1415269375, -4.7425, 3.605, 0.72625, -4.7425, 3.605, 0.72625, -0.23625, 1.96, 0.65625, -0.23625, 1.96, 0.65625
10.1517219543, -4.82125, 3.87625, 0.70875, -4.7425, 3.605, 0.72625, -0.23625, 1.96, 0.65625, -0.23625, 1.96, 0.65625
10.1620700359, -4.82125, 3.87625, 0.70875, -4.82125, 3.87625, 0.70875, -0.3325, 1.96, 0.34125, -0.3325, 1.96, 0.34125
10.1722209454, -4.82125, 3.87625, 0.70875, -4.82125, 3.87625, 0.70875, -0.3325, 1.96, 0.34125, -0.3325, 1.96, 0.34125
10.1823909283, -4.82125, 3.87625, 0.70875, -4.82125, 3.87625, 0.70875, -0.3325, 1.96, 0.34125, -0.3325, 1.96, 0.34125
10.1926510334, -4.73375, 3.9025, 0.735, -4.73375, 3.9025, 0.735, -0.28875, 1.785, 0.27125, -0.28875, 1.785, 0.27125
10.2029750347, -4.64625, 4.15625, 0.735, -4.64625, 4.15625, 0.735, -0.385, 1.8375, 0.69125, -0.385, 1.8375, 0.69125
10.2133691311, -4.64625, 4.15625, 0.735, -4.64625, 4.15625, 0.735, -0.385, 1.8375, 0.69125, -0.385, 1.8375, 0.69125
10.2235660553, -4.83, 3.92, 0.65625, -4.83, 3.92, 0.65625, -0.32375, 1.86375, 0.56875, -0.32375, 1.86375, 0.56875
10.2338500023, -4.83, 3.92, 0.65625, -4.83, 3.92, 0.65625, -0.32375, 1.86375, 0.56875, -0.32375, 1.86375, 0.56875
10.2440609932, -4.76875, 3.99875, 0.84875, -4.76875, 3.99875, 0.84875, -0.315, 2.05625, 0.3675, -0.315, 2.05625, 0.3675
10.254267931, -4.76875, 3.99875, 0.84875, -4.76875, 3.99875, 0.84875, -0.315, 2.05625, 0.3675, -0.315, 2.05625, 0.3675
10.2645499706, -4.83, 3.9025, 0.63, -4.83, 3.9025, 0.63, -0.32375, 1.82875, 0.60375, -0.32375, 1.82875, 0.60375
10.2749500275, -4.83, 3.9025, 0.63, -4.83, 3.9025, 0.63, -0.32375, 1.82875, 0.60375, -0.32375, 1.82875, 0.60375
10.2851109505, -4.62875, 3.89375, 0.74375, -4.62875, 3.89375, 0.74375, -0.32375, 1.93375, 0.525, -0.32375, 1.93375, 0.525
10.2952680588, -4.62875, 3.89375, 0.74375, -4.62875, 3.89375, 0.74375, -0.32375, 1.93375, 0.525, -0.32375, 1.93375, 0.525
10.3054790497, -4.55875, 3.5, 0.76125, -4.55875, 3.5, 0.76125, -0.1225, 1.715, 0.5425, -0.1225, 1.715, 0.5425
10.3157129288, -4.55875, 3.5, 0.76125, -4.55875, 3.5, 0.76125, -0.1225, 1.715, 0.5425, -0.1225, 1.715, 0.5425
10.3259119987, -4.55875, 3.5, 0.76125, -4.55875, 3.5, 0.76125, -0.1225, 1.715, 0.5425, -0.1225, 1.715, 0.5425
10.336165905, -4.585, 3.7975, 0.67375, -4.585, 3.7975, 0.67375, -0.175, 1.855, 0.58625, -0.175, 1.855, 0.58625
10.3464150429, -4.6725, 3.96375, 0.6825, -4.6725, 3.96375, 0.6825, -0.2625, 1.6625, 0.48125, -0.2625, 1.6625, 0.48125
10.3566129208, -4.6725, 3.96375, 0.6825, -4.6725, 3.96375, 0.6825, -0.2625, 1.6625, 0.48125, -0.2625, 1.6625, 0.48125
10.3668079376, -4.48, 4.095, 0.6475, -4.48, 4.095, 0.6475, -0.3675, 2.03875, 0.58625, -0.3675, 2.03875, 0.58625
10.3770089149, -4.48, 4.095, 0.6475, -4.48, 4.095, 0.6475, -0.3675, 2.03875, 0.58625, -0.3675, 2.03875, 0.58625
10.3872339725, -4.585, 4.025, 0.81375, -4.585, 4.025, 0.81375, -0.28, 1.75, 0.60375, -0.28, 1.75, 0.60375
10.3974719048, -4.585, 4.025, 0.81375, -4.585, 4.025, 0.81375, -0.28, 1.75, 0.60375, -0.28, 1.75, 0.60375
10.4076340199, -4.69, 3.675, 0.72625, -4.69, 3.675, 0.72625, -0.28875, 2.065, 0.72625, -0.28875, 2.065, 0.72625
10.417812109, -4.69, 3.675, 0.72625, -4.69, 3.675, 0.72625, -0.28875, 2.065, 0.72625, -0.28875, 2.065, 0.72625
10.4280269146, -4.52375, 3.9725, 0.7875, -4.52375, 3.9725, 0.7875, -0.16625, 1.925, 0.42, -0.16625, 1.925, 0.42
10.4382059574, -4.52375, 3.9725, 0.7875, -4.52375, 3.9725, 0.7875, -0.16625, 1.925, 0.42, -0.16625, 1.925, 0.42
10.4484651089, -4.83, 4.0425, 1.0325, -4.52375, 3.9725, 0.7875, -0.16625, 1.96875, 0.455, -0.16625, 1.96875, 0.455
10.4587640762, -4.83, 4.0425, 1.0325, -4.83, 4.0425, 1.0325, -0.16625, 1.96875, 0.455, -0.16625, 1.96875, 0.455
10.4689979553, -4.62, 3.78875, 0.8925, -4.62, 3.78875, 0.8925, -0.14, 1.96, 0.63, -0.14, 1.96, 0.63
10.4791340828, -4.62, 3.78875, 0.8925, -4.62, 3.78875, 0.8925, -0.14, 1.96, 0.63, -0.14, 1.96, 0.63
10.4893000126, -4.73375, 3.885, 0.8575, -4.73375, 3.885, 0.8575, -0.245, 2.00375, 0.455, -0.245, 2.00375, 0.455
10.49949193, -4.73375, 3.885, 0.8575, -4.73375, 3.885, 0.8575, -0.245, 2.00375, 0.455, -0.245, 2.00375, 0.455
10.5097699165, -4.655, 3.85, 0.84875, -4.73375, 3.885, 0.8575, -0.0875, 1.6975, 0.84, -0.245, 2.00375, 0.455
10.5200901031, -4.655, 3.85, 0.84875, -4.655, 3.85, 0.84875, -0.0875, 1.6975, 0.84, -0.0875, 1.6975, 0.84
10.5302619934, -4.5325, 3.885, 0.65625, -4.5325, 3.885, 0.65625, -0.07, 1.9425, 0.21875, -0.07, 1.9425, 0.21875
10.5406839848, -4.5325, 3.885, 0.65625, -4.5325, 3.885, 0.65625, -0.07, 1.9425, 0.21875, -0.07, 1.9425, 0.21875
10.5509819984, -4.43625, 3.73625, 0.95375, -4.43625, 3.73625, 0.95375, -0.34125, 1.88125, 0.55125, -0.34125, 1.88125, 0.55125
10.5614519119, -4.43625, 3.73625, 0.95375, -4.43625, 3.73625, 0.95375, -0.34125, 1.88125, 0.55125, -0.34125, 1.88125, 0.55125
10.5716769695, -4.43625, 3.73625, 0.95375, -4.43625, 3.73625, 0.95375, -0.34125, 1.88125, 0.55125, -0.34125, 1.88125, 0.55125
10.5819101334, -4.57625, 3.52625, 0.84, -4.57625, 3.52625, 0.84, -0.11375, 1.89875, 0.37625, -0.11375, 1.89875, 0.37625
10.5920650959, -4.57625, 3.52625, 0.84, -4.57625, 3.52625, 0.84, -0.11375, 1.89875, 0.37625, -0.11375, 1.89875, 0.37625
10.6022689342, -4.71625, 3.85, 0.76125, -4.71625, 3.85, 0.76125, -0.16625, 1.8375, 0.63, -0.16625, 1.8375, 0.63
10.6124670506, -4.71625, 3.85, 0.76125, -4.71625, 3.85, 0.76125, -0.16625, 1.8375, 0.63, -0.16625, 1.8375, 0.63
10.6226401329, -4.73375, 4.025, 0.86625, -4.73375, 4.025, 0.86625, -0.315, 1.93375, 0.70875, -0.315, 1.93375, 0.70875
10.6328201294, -4.73375, 4.025, 0.86625, -4.73375, 4.025, 0.86625, -0.315, 1.93375, 0.70875, -0.315, 1.93375, 0.70875
10.6430950165, -4.64625, 3.955, 0.735, -4.64625, 3.955, 0.735, -0.07875, 1.75, 0.60375, -0.07875, 1.75, 0.60375
10.653537035, -4.64625, 3.955, 0.735, -4.64625, 3.955, 0.735, -0.07875, 1.75, 0.60375, -0.07875, 1.75, 0.60375
10.6637101173, -4.64625, 3.955, 0.735, -4.64625, 3.955, 0.735, -0.07875, 1.75, 0.60375, -0.07875, 1.75, 0.60375
10.6738760471, -4.69875, 3.96375, 0.90125, -4.69875, 3.96375, 0.90125, -0.34125, 1.89875, 0.76125, -0.34125, 1.89875, 0.76125
10.6842839718, -4.61125, 3.92, 0.70875, -4.69875, 3.96375, 0.90125, -0.2625, 1.8025, 0.5075, -0.2625, 1.8025, 0.5075
10.6946320534, -4.61125, 3.92, 0.70875, -4.61125, 3.92, 0.70875, -0.2625, 1.8025, 0.5075, -0.2625, 1.8025, 0.5075
