TIME, IMU1_gyr_x, IMU1_gyr_y, IMU1_gyr_z, IMU1_gyr_raw_x, IMU1_gyr_raw_y, IMU1_gyr_raw_z,IMU2_gyr_x, IMU2_gyr_y,IMU2_gyr_z, IMU2_gyr_raw_x, IMU2_gyr_raw_y, IMU2_gyr_raw_z1.90734863281e-06, 0.0, 0.0, 0.0, 0.0, 0.0, 0.0, 0.0, 0.0, 0.0, 0.0, 0.0, 0.0
0.0501821041107, 0.0, 0.0, 0.0, 0.0, 0.0, 0.0, 0.0, 0.0, 0.0, 0.0, 0.0, 0.0
0.100569009781, -0.471370303338, 0.377896558461, 0.0515298807319, -5.11, 3.59625, 1.12875, 0.107654193061, 0.159640120169, 0.162004393637, -0.07, 2.21375, 0.77
0.150816917419, -0.425522445704, 0.385183712353, 0.0763592033929, -4.8825, 3.80625, 0.9625, 0.122459896379, 0.147108497337, 0.149468558846, -0.14875, 2.1, 0.6825
0.201041936874, -0.427040862918, 0.396647676306, 0.0633838592734, -5.04875, 3.9375, 0.84, 0.14846851446, 0.179109594559, 0.161838079398, -0.06125, 2.33625, 0.5775
0.251219987869, -0.391715598964, 0.406147117807, 0.0677609260115, -4.935, 3.8325, 0.875, 0.176956996713, 0.150278771593, 0.174533844313, -0.0525, 2.1, 0.84
0.301399946213, -0.391977135161, 0.417866665424, 0.0467188500693, -5.06625, 3.68375, 0.77875, 0.156020167338, 0.15151330499, 0.147104913893, -0.20125, 2.03875, 0.53375
0.351675987244, -0.362913831532, 0.361559799094, 0.0489772917005, -4.83, 3.61375, 0.875, 0.166318951989, 0.133101949338, 0.177422482228, -0.14, 2.1, 0.79625
0.401854991913, -0.391310203541, 0.367925937266, 0.0508416062774, -5.04875, 3.71875, 0.90125, 0.131915851111, 0.109512578964, 0.139469710605, -0.175, 1.98625, 0.4025
0.452038049698, -0.416236264868, 0.359432509186, 0.0689767010847, -5.1625, 3.6925, 0.83125, 0.1304743394, 0.12890518896, 0.15361546559, -0.0525, 2.2925, 0.875
0.502223014832, -0.461746237089, 0.367690049196, 0.0308945150907, -5.3375, 3.91125, 0.74375, 0.0788160434226, 0.133298132752, 0.143371174415, -0.5075, 2.24, 0.5075
0.552449941635, -0.480114452042, 0.346903939849, 0.0277070572235, -5.215, 3.56125, 0.76125, 0.0849259951723, 0.335246487529, 0.124750651276, -0.2275, 2.1, 0.58625
0.60268497467, -0.486505206154, 0.368567191278, 0.053650216351, -5.15375, 3.94625, 1.015, 0.0980125560896, 0.294424654899, 0.164268027534, -0.1225, 2.135, 0.84875
0.652856111526, -0.478226045286, 0.391359232441, 0.0339227577199, -5.1625, 3.91125, 0.6125, 0.0762301533893, 0.273876823421, 0.182759392072, -0.455, 2.1525, 0.70875
0.703042030334, -0.452163096682, 0.404400978278, 0.0303349337531, -5.0225, 4.0075, 0.62125, 0.0851064242453, 0.258365226971, 0.185092607578, -0.23625, 2.24, 0.67375
0.753212928772, -0.409510647481, 0.359600813164, 0.026979666706, -5.03125, 3.75375, 0.90125, 0.0862815832748, 0.216973250462, 0.135264260925, -0.13125, 2.0125, 0.4025
0.803392887115, -0.41662862446, 0.401864158663, 0.0219985300319, -5.145, 3.885, 0.8225, 0.129123082453, 0.186023332874, 0.115821551349, -0.035, 1.9775, 0.5075
0.853606939316, -0.399994185812, 0.392259968517, 0.0362513093258, -4.9525, 3.8325, 0.91875, 0.143437196787, 0.199103899628, 0.148197956593, -0.02625, 2.09125, 0.67375
0.9038169384, -0.440219511457, 0.371942517049, 0.00965395449853, -5.18, 3.605, 0.76125, 0.130992216457, 0.197204242829, 0.163326810356, -0.2275, 2.135, 0.55125
0.954049110413, -0.44579030428, 0.35516093881, 0.0155772031438, -5.18, 3.49125, 0.875, 0.100413695331, 0.188035436691, 0.123152216388, -0.2275, 2.0475, 0.30625
1.00431990623, -0.445140146467, 0.365980360436, -0.0140999654535, -5.13625, 3.7275, 0.735, 0.0803700932177, 0.18979620372, 0.132085795275, -0.14875, 2.415, 0.7525
1.0546169281, -0.432452166774, 0.364772182758, -0.00694462481561, -4.97875, 3.6225, 0.86625, 0.0694587979557, 0.193385182512, 0.152701044755, -0.035, 2.03, 0.72625
1.1048951149, -0.431973755087, 0.334740468034, 0.0128948538994, -5.13625, 3.52625, 0.9275, 0.123196626344, 0.179779497835, 0.116907846252, 0.105, 2.16125, 0.30625
1.15510392189, -0.444790117459, 0.371232051197, 0.0188770984926, -5.3375, 3.955, 0.7875, 0.120585590605, 0.198639253921, 0.117687569917, 0.02625, 2.2225, 0.7175
1.20528888702, -0.428054995142, 0.376110461469, -0.00425205022097, -4.92625, 3.8325, 0.58625, 0.11823432839, 0.174585295676, 0.126259431633, -0.04375, 2.00375, 0.69125
1.25551009178, -0.425874546065, 0.36422447379, -0.00662416067899, -4.96125, 3.66625, 0.6475, 0.164542305996, 0.190889089498, 0.106690139623, 0.0525, 2.19625, 0.4025
1.30582404137, -0.408765044081, 0.345125891393, 0.00951273686502, -5.10125, 3.605, 0.84875, 0.156230341071, 0.160231896244, 0.112505111785, -0.14, 1.86375, 0.62125
1.35599207878, -0.396512185706, 0.372201972028, 0.00181281686067, -5.1625, 3.98125, 0.77, 0.161456576267, 0.157037835958, 0.134749140546, -0.2625, 2.17875, 0.62125
1.40617704391, -0.408517383379, 0.405943987609, 0.0104132934914, -4.83875, 3.7975, 0.875, 0.142589826777, 0.165475647126, 0.112254303842, -0.14, 2.0475, 0.65625
1.45643806458, -0.421599080537, 0.399589629963, -0.00157023227195, -5.0925, 3.605, 0.7525, 0.12141448372, 0.160614246755, 0.130237637501, -0.28875, 2.1875, 0.595
1.50669598579, -0.424057755235, 0.37659260027, -0.00217688814028, -5.06625, 3.63125, 0.79625, 0.107355731813, 0.165660039871, 0.100199986376, -0.175, 2.2225, 0.37625
1.55686593056, -0.433585603567, 0.388346005597, -0.0190252014543, -5.10125, 3.63125, 0.72625, 0.0691813284919, 0.200569919066, 0.0847437900679, -0.2975, 2.3975, 0.42875
1.60706996918, -0.412504338889, 0.401872764533, -0.021215413178, -4.83, 3.92, 0.62125, 0.101971876078, 0.174661634444, 0.039637469955, -0.02625, 2.0125, 0.28875
1.65734004974, -0.3914035145, 0.384041939272, -0.00583948467414, -4.9, 3.7975, 0.76125, 0.0967697196236, 0.178875923899, 0.0566513506636, 0.02625, 2.17, 0.3675
1.70764493942, -0.388311846745, 0.39252397081, 0.00162751741395, -4.96125, 3.885, 0.81375, 0.128080972895, 0.168639498358, 0.0768200940375, 0.035, 1.98625, 0.53375
1.75784301758, -0.419829336277, 0.400388724721, 0.0284869601948, -5.1975, 3.98125, 0.735, 0.324608779241, 0.160356944303, 0.0991385985533, 2.1175, 2.14375, 0.6825
1.80803894997, -0.421574262384, 0.381614867024, 0.0229569377578, -5.04, 3.675, 0.79625, 0.268793111185, 0.177614124886, 0.0960097648282, 0.06125, 2.1, 0.5075
1.85821199417, -0.448187652531, 0.399833042289, 0.0331776195838, -5.27625, 3.78875, 0.77, 0.27258242006, 0.178292441157, 0.117625409511, -0.07875, 2.26625, 0.63875
1.90843200684, -0.43719449855, 0.420889764254, 0.0450438718629, -5.17125, 4.025, 0.97125, 0.248876760248, 0.182166877337, 0.0950590817038, 0.07875, 2.12625, 0.25375
1.95863199234, -0.469368539443, 0.435119888141, 0.055806232588, -5.08375, 3.9375, 0.735, 0.184136408221, 0.158519653579, 0.0851960705621, -0.245, 1.785, 0.53375
2.00884103775, -0.497189665254, 0.429603648455, 0.0640544935567, -5.27625, 3.7975, 0.74375, 0.163488191593, 0.147773327459, 0.11143093544, -0.315, 2.135, 0.6475
2.05907011032, -0.482398628856, 0.410528955249, 0.0503666397809, -5.01375, 3.7275, 0.81375, 0.16261043519, 0.140646395242, 0.127841557706, -0.105, 2.1, 0.72625
2.10936403275, -0.481180389373, 0.401028453751, 0.0286919782225, -5.06625, 3.6925, 0.62125, 0.136174452504, 0.145723580146, 0.106221661742, -0.23625, 2.24, 0.5425
2.15960001945, -0.468118615392, 0.395870547539, 0.0304730023603, -5.04, 3.8675, 0.665, 0.150461306528, 0.145548599918, 0.116184546011, 0.02625, 2.12625, 0.53375
2.20977210999, -0.477185970621, 0.355709629156, 0.0625615687206, -5.24125, 3.64, 0.86625, 0.162922792459, 0.12347742934, 0.117991534042, -0.11375, 2.1, 0.525
2.2599260807, -0.455870636203, 0.366687299616, 0.0491573706637, -5.005, 3.91125, 0.65625, 0.152177461892, 0.149404217766, 0.128605642574, -0.07875, 2.1875, 0.58625
2.31086397171, -0.454267715324, 0.363504212689, 0.0539624702376, -4.9175, 3.64875, 0.72625, 0.137173744133, 0.16611741639, 0.096953070485, -0.07875, 2.31, 0.65625
2.36103892326, -0.463381849413, 0.379038412278, 0.0459546008925, -5.25, 3.885, 0.875, 0.122395732747, 0.165567607276, 0.0927519870928, -0.18375, 2.0825, 0.595
2.41122508049, -0.489439118222, 0.367667752551, 0.0604251540506, -5.11875, 3.6925, 0.91, 0.156891739173, 0.147101285704, 0.107462948591, 0.06125, 2.07375, 0.62125
2.4614880085, -0.46955818576, 0.371123379566, 0.040864374781, -4.9875, 3.70125, 0.70875, 0.14834230873, 0.12417704142, 0.0806149883584, -0.13125, 1.925, 0.2625
2.51170611382, -0.494606667419, 0.371155193704, 0.0567406292153, -5.15375, 3.57875, 0.77875, 0.124916793064, 0.150667563196, 0.0738438265133, -0.27125, 2.03, 0.65625
2.56195402145, -0.500693900609, 0.3591607069, 0.0530174096644, -5.1625, 3.71875, 0.72625, 0.119292602382, 0.128553226188, 0.0750834994758, -0.21, 1.995, 0.46375
2.61224603653, -0.505999603544, 0.37743190533, 0.0641826916454, -5.03125, 3.85, 0.8575, 0.0884095571364, 0.141292801891, 0.0374538711178, -0.16625, 2.2225, 0.1925
2.66241598129, -0.471422178871, 0.366082343317, 0.0245704802327, -4.935, 3.5875, 0.665, 0.0543717412805, 0.138897169532, 0.0552326356055, -0.35875, 2.05625, 0.56
2.71258091927, -0.423323018397, 0.380824028278, 0.0433398800897, -4.8825, 3.61375, 0.91, 0.0588447493935, 0.143644786589, 0.0625500913564, -0.1225, 1.91625, 0.7
2.76286506653, -0.463849980411, 0.398719466615, 0.0552727725854, -5.34625, 3.91125, 0.8925, 0.0620005723079, 0.145557049423, 0.0578132665988, -0.14875, 2.1, 0.39375
2.81333208084, -0.478055984133, 0.373700267958, 0.0447409457942, -5.2325, 3.64875, 0.72625, 0.0486429635694, 0.142876210033, 0.059123745945, -0.21, 1.8725, 0.56
2.86349797249, -0.476612847148, 0.389309717046, 0.0446101660933, -5.1975, 3.85, 0.77875, 0.0336233004912, 0.135192230127, 0.0562477342155, -0.1575, 1.95125, 0.56
2.91368889809, -0.448877015571, 0.388884283727, 0.060250061082, -4.83875, 3.7975, 0.9275, 0.0284066360581, 0.125307635762, 0.0495525982431, -0.315, 2.03, 0.5075
2.9638299942, -0.444052882612, 0.382008769819, 0.0697725494764, -5.01375, 3.6225, 0.77875, 0.069119375207, 0.149399184967, 0.0627576045769, 0.14875, 2.1175, 0.72625
3.01405191422, -0.429795801424, 0.355115643198, 0.0669821885683, -4.92625, 3.6225, 0.8925, 0.0985845245259, 0.133477005841, 0.0855532937366, -0.035, 2.205, 0.735
3.06422591209, -0.437609599154, 0.36445617099, 0.0400505727403, -5.20625, 3.815, 0.805, 0.100675964866, 0.130903874731, 0.0980431679266, -0.25375, 2.12625, 0.70875
3.11443400383, -0.459863775315, 0.353034498502, 0.0310984639197, -5.145, 3.64875, 0.91, 0.122232531541, 0.127419638532, 0.0873349660206, -0.07875, 2.14375, 0.67375
3.16461896896, -0.406934442204, 0.350644649408, 0.0107450301974, -4.87375, 3.89375, 0.6475, 0.116391515494, 0.12546016649, 0.086206440229, -0.1575, 2.1, 0.56
3.21485304832, -0.446304398185, 0.36520966602, 0.0101609744599, -5.32875, 3.85875, 0.7175, 0.12831212755, 0.135697734857, 0.0815097165855, 0.04375, 2.1525, 0.5775
3.26504206657, -0.44153156253, 0.364494829477, 0.00872538931254, -4.97, 3.71, 0.7, 0.128430323315, 0.122990165234, 0.0722803704342, -0.20125, 2.02125, 0.665
3.31521892548, -0.423154009085, 0.341927980688, -0.0129761911912, -4.92625, 3.59625, 0.875, 0.122825955697, 0.147737330456, 0.104412890047, -0.21, 2.17, 0.6825
3.36538505554, -0.432929747358, 0.345724164358, -0.00765321486484, -5.04, 3.955, 0.7, 0.126699024115, 0.154092237669, 0.126181940938, -0.16625, 2.1875, 0.735
3.41554307938, -0.381367035824, 0.344344165817, 0.00674130636353, -5.005, 3.78875, 0.56, 0.123987588579, 0.142970741261, 0.130100884944, -0.2275, 1.9775, 0.7
3.4667289257, -0.390332299018, 0.357568774312, 5.45815446067e-06, -5.11, 3.84125, 0.735, 0.148639946749, 0.189693800421, 0.117501716804, 0.1225, 2.275, 0.62125
3.51693892479, -0.380094162204, 0.316918207192, 0.0326994211051, -4.935, 3.43, 1.00625, 0.167908356867, 0.186764478341, 0.119283890611, 0.0525, 2.135, 0.7175
3.56717801094, -0.360122394247, 0.307550873043, 0.0502808779856, -4.9525, 3.82375, 0.8225, 0.125591692156, 0.186852554711, 0.0960659562558, -0.1575, 2.19625, 0.51625
3.61744809151, -0.42439913934, 0.295566207165, 0.0159350111684, -5.5125, 3.61375, 0.69125, 0.118789270646, 0.166263069316, 0.0890584245672, -0.07875, 2.0475, 0.455
3.66764307022, -0.438305722579, 0.299772765023, 0.0292308731417, -5.1625, 3.6575, 0.81375, 0.0932138783012, 0.176203277531, 0.0772953415095, -0.11375, 2.24, 0.7875
3.7178170681, -0.460952635289, 0.302915939669, 0.0303845072448, -5.355, 3.56125, 0.84875, 0.084250741424, 0.1614871548, 0.0849667266227, -0.35875, 2.03875, 0.5425
3.76796102524, -0.467134134584, 0.289011911132, 0.00296895086829, -5.1625, 3.57, 0.53375, 0.0940531005534, 0.157267095388, 0.0970430485644, -0.07, 2.17875, 0.65625
3.81819295883, -0.463964534112, 0.274117183215, 0.013548615183, -5.0225, 3.57, 0.805, 0.100416210303, 0.130532712538, 0.0770698824034, 0.07875, 1.95125, 0.3325
3.86840796471, -0.463106395367, 0.321157676564, 0.0128961904684, -4.97875, 3.82375, 0.70875, 0.151421167311, 0.12042334744, 0.0735956942721, 0.06125, 2.03875, 0.63
3.91865301132, -0.475966180248, 0.369412718017, 0.0415659142794, -5.08375, 3.91125, 0.69125, 0.162548645522, 0.114642911427, 0.10935751236, 0.07875, 1.8725, 0.6825
3.96883606911, -0.468320595401, 0.389761871434, 0.0534370515097, -5.06625, 3.9025, 0.90125, 0.131711962586, 0.13330468243, 0.109514626511, -0.21, 2.17, 0.6475
4.01908111572, -0.479314682274, 0.368632115862, 0.0406290117228, -5.15375, 3.5525, 0.8575, 0.103271689694, 0.152726792768, 0.116751847474, -0.39375, 2.19625, 0.7175
4.06922698021, -0.476702903378, 0.357762812463, 0.034449049546, -4.865, 3.73625, 0.7875, 0.0962428117872, 0.169660331928, 0.128730096808, -0.2625, 2.1, 0.53375
4.11940789223, -0.486716851736, 0.349625378095, 0.0450237301322, -5.3725, 3.77125, 0.86625, 0.105254177548, 0.179024868862, 0.110791378415, 0.07875, 2.275, 0.455
4.16955900192, -0.471476584916, 0.337064400631, 0.0504977992664, -5.11, 3.5875, 0.95375, 0.0659342954322, 0.1895578794, 0.118014914864, -0.20125, 2.19625, 0.62125
4.21977806091, -0.458158533782, 0.362259664511, 0.0456857174058, -4.90875, 3.7975, 0.735, 0.0775542793001, 0.229179382314, 0.12031208104, -0.23625, 2.2925, 0.62125
4.26995801926, -0.459416321127, 0.364562295429, 0.0316953879888, -5.1275, 3.92, 0.72625, 0.0290985696098, 0.397095519707, 0.102949257078, -0.46375, 2.0475, 0.58625
4.32017993927, -0.470264720113, 0.375520459297, 0.0216182642709, -5.1275, 3.68375, 0.7175, 0.0506923413839, 0.592322370963, 0.0937588982334, -0.09625, 4.3925, 0.44625
4.37035608292, -0.467077980962, 0.397495664828, 0.0376089646535, -5.145, 3.87625, 0.95375, 0.0314087168689, 0.482600508432, 0.0870919868121, -0.14875, 2.135, 0.7
4.42053389549, -0.470433164579, 0.40088398851, 0.0357707613693, -5.075, 3.8675, 0.86625, 0.00435106066378, 0.40266891183, 0.0529145093178, -0.27125, 1.89, 0.245
4.4707660675, -0.449175863309, 0.393828530693, 0.0402318167092, -5.04, 3.75375, 0.83125, 0.0231218591377, 0.386749318582, 0.0555057525474, 0.09625, 2.28375, 0.51625
4.52094888687, -0.445202954352, 0.445168498876, 0.016965744381, -5.18, 3.94625, 0.76125, 0.0603360853114, 0.319061503246, 0.0897429436071, -0.18375, 2.24, 0.76125
4.57115006447, -0.433026893026, 0.455948984089, 0.0270997529486, -5.075, 4.01625, 0.805, 0.0586697291022, 0.28778981763, 0.101349284322, -0.09625, 2.23125, 0.5425
4.62133312225, -0.433465355016, 0.439573059401, 0.0225999698995, -4.97875, 3.78, 0.84875, 0.0728804825155, 0.270816277052, 0.0908228782705, -0.16625, 2.1175, 0.63
4.67149806023, -0.432794437563, 0.443804178115, 0.0183634756186, -4.97875, 3.885, 0.81375, 0.0576306908376, 0.263148684412, 0.0745740313991, -0.27125, 2.17875, 0.455
4.72168111801, -0.409413494426, 0.449243884273, 0.0242944152511, -4.97875, 3.85, 0.88375, 0.0332908595784, 0.214675434374, 0.102537465433, -0.28875, 2.0475, 0.63
4.7718539238, -0.404368687436, 0.422881291635, 0.025209878718, -4.90875, 3.8675, 1.015, 0.0555692866327, 0.197233391658, 0.0929665623009, -0.07875, 2.07375, 0.49
4.8220949173, -0.428563636823, 0.439996346224, 0.0185525017616, -5.10125, 3.75375, 0.7, 0.0681086221725, 0.199521547243, 0.121722915464, -0.02625, 2.17, 0.74375
4.87226009369, -0.438935391244, 0.434672336398, 0.0100427737842, -5.355, 3.73625, 0.58625, 0.130843935564, 0.19235495794, 0.124715255373, 0.1225, 2.1, 0.455
4.92242693901, -0.429875166908, 0.420497092482, -0.00213285323479, -5.03125, 3.68375, 0.72625, 0.145968587807, 0.186557515932, 0.112526856852, -0.07, 2.135, 0.48125
4.97261500359, -0.422011385195, 0.42275264491, -0.00718261112018, -4.9, 3.7975, 0.735, 0.142294556123, 0.177136587905, 0.13170425405, -0.0875, 2.05625, 0.7875
5.02291607857, -0.418960049807, 0.44389792814, 0.0170856264934, -5.11875, 3.87625, 0.875, 0.127166731414, 0.219593822583, 0.113144151203, 0.00875, 2.26625, 0.42875
5.07317304611, -0.443620140344, 0.434882321793, -0.00622814254035, -5.18875, 3.82375, 0.69125, -0.0760224475547, 0.177820996292, 0.0967667624741, -2.205, 1.96875, 0.63
5.12341189384, -0.442769813679, 0.437029680652, 0.0111127045423, -5.075, 3.82375, 1.00625, -0.0377806825193, 0.187210006996, 0.081576077604, -0.11375, 2.03875, 0.4375
5.17361211777, -0.441486694172, 0.424932137196, 0.0198616616113, -5.18875, 3.7975, 0.70875, -0.0285818675566, 0.1765548451, 0.0758744605734, -0.13125, 2.205, 0.805
5.22380900383, -0.444979222279, 0.396945031128, 0.0393329459052, -5.075, 3.77125, 0.84875, -0.0332163127208, 0.159671924531, 0.0638658130644, -0.42875, 2.065, 0.4375
5.27405691147, -0.499870670046, 0.401400475214, 0.0423296861832, -5.4775, 3.885, 0.83125, 0.0208672866961, 0.13339675887, 0.0808263085822, 0.1575, 1.9075, 0.74375
5.32427692413, -0.530686968464, 0.395300946431, 0.0576513412276, -5.11875, 3.52625, 0.8575, 0.0408250020015, 0.157432487216, 0.0864053789564, -0.09625, 2.1525, 0.7
5.37444090843, -0.509006444456, 0.402256266609, 0.0462300863943, -5.04, 3.71, 0.84, 0.0612407516212, 0.106732814645, 0.0740583569547, -0.07, 1.70625, 0.44625
5.42470788956, -0.488645220009, 0.372015075953, 0.0468663699794, -4.99625, 3.50875, 0.88375, 0.0802275088132, 0.110378579863, 0.103257269133, -0.06125, 2.16125, 0.74375
5.4749789238, -0.510647365387, 0.35162774037, 0.028242333715, -5.15375, 3.7975, 0.74375, 0.0788836039248, 0.12667848472, 0.139210049198, -0.1925, 2.19625, 0.69125
5.52518796921, -0.488311865963, 0.3764184697, 0.0188212903091, -5.06625, 3.87625, 0.7175, 0.0938182191791, 0.118659572623, 0.136342639851, 0.02625, 2.00375, 0.58625
5.57535290718, -0.503028100287, 0.350489064411, 0.0301449706354, -5.25875, 3.6225, 0.88375, 0.0496262317816, 0.158510328442, 0.134848034451, -0.53375, 2.3975, 0.4025
5.62551903725, -0.491065261233, 0.331571142173, 0.0246499262146, -5.17125, 3.6575, 0.83125, 0.0283822477431, 0.208493366038, 0.147071907905, -0.3675, 2.1875, 0.67375
5.67570996284, -0.464522825439, 0.355499112644, 0.0356627962105, -5.06625, 3.92, 0.81375, -0.0188228413953, 0.194056663842, 0.162549670863, -0.3325, 2.2225, 0.83125
5.72591805458, -0.452088488605, 0.368091781242, 0.0480193649305, -5.0225, 3.75375, 0.83125, -0.0115740015302, 0.178573397712, 0.118060233399, -0.315, 1.82875, 0.3325
5.7761080265, -0.476822508193, 0.354096408525, 0.0421553670343, -5.3025, 3.77125, 0.74375, -0.00486594711552, 0.148917506932, 0.107773910148, -0.32375, 2.205, 0.51625
5.82629108429, -0.499063731636, 0.318130590905, 0.0358658472978, -5.18, 3.5175, 0.665, 0.0251935828364, 0.128623180615, 0.12312936722, -0.13125, 2.065, 0.70875
5.87646508217, -0.503254122626, 0.337210778633, 0.0565838363112, -5.13625, 3.85, 0.88375, 0.289991802098, 0.121897276298, 0.091117287448, 2.17875, 2.17, 0.28
5.92668104172, -0.490523505394, 0.339187907624, 0.0668351166709, -5.0925, 3.9725, 0.91, 0.241278023729, 0.116490614421, 0.0770112525496, -0.00875, 2.1175, 0.49875
5.97683691978, -0.476911539369, 0.338167205175, 0.0904189445034, -5.1625, 3.73625, 1.05, 0.208557699221, 0.135344897681, 0.132599114565, -0.39375, 2.135, 0.84
6.02708792686, -0.4801660122, 0.309942642573, 0.094965910543, -5.1975, 3.325, 0.7525, 0.168070062732, 0.15441643041, 0.140116504518, -0.14875, 1.96875, 0.525
6.07725000381, -0.453794772894, 0.302036936436, 0.0811481487858, -5.04, 3.63125, 0.7875, 0.157183325731, 0.138473327769, 0.115164181794, 0.13125, 1.89, 0.56875
6.12743496895, -0.427473766044, 0.345874918513, 0.0566875005165, -4.92625, 3.9725, 0.69125, 0.149978493842, 0.182550895493, 0.0886029872528, -0.2275, 2.555, 0.4375
6.17761206627, -0.437300875446, 0.284000315596, -0.00844431212345, -5.3025, 3.42125, 0.3675, 0.129267580012, 0.192878725349, 0.0772384196748, -0.06125, 1.98625, 0.42875
6.22810697556, -0.438788709111, 0.270102755633, -0.02541989282, -5.03125, 3.52625, 0.84, 0.0861525658291, 0.132212340779, 0.0557548079429, -0.245, 1.84625, 0.62125
6.27831196785, -0.444779468942, 0.324723658856, -0.0372906018658, -5.08375, 3.78, 0.5075, 0.0905442204894, 0.143732796428, 0.0938357549904, -0.175, 2.54625, 0.42
6.32860994339, -0.437846369843, 0.298276163674, -0.0740728875113, -5.04, 3.59625, 0.595, 0.0898758185964, 0.119523565107, 0.0781519615422, -0.0525, 2.0475, 0.49
6.37897610664, -0.462170003616, 0.277440823318, 0.00853761500428, -5.20625, 3.4475, 1.085, 0.0788122217568, 0.0838989289629, 0.0482920299643, -0.21, 1.96875, 0.28875
6.42915511131, -0.430131932636, 0.301793110199, -0.00236807866188, -4.89125, 3.61375, 0.98875, 0.0614368596607, 0.113972319214, 0.080607889844, -0.30625, 2.02125, 0.74375
6.47938489914, -0.435606865435, 0.340339919261, 0.00811435628388, -5.13625, 3.99, 0.7875, 0.0793363563252, 0.126392578563, 0.0935123907736, -0.0875, 2.1525, 0.5775
6.52956199646, -0.436291154902, 0.320285301141, 0.0307046157309, -5.0575, 3.57875, 0.98, 0.106496453761, 0.0738126897726, 0.064293532874, -0.04375, 1.75875, 0.44625
6.57972192764, -0.444183335471, 0.345081093924, 0.0361282387421, -4.865, 3.75375, 0.83125, 0.109972127546, 0.132713278716, 0.109347761628, -0.04375, 2.49375, 0.805
6.62990903854, -0.454627151558, 0.352931617471, 0.077884236043, -5.01375, 3.63125, 0.9625, 0.0975486809814, 0.129634230184, 0.103776268227, -0.14, 2.1, 0.58625
6.68007397652, -0.439341943486, 0.340227149136, 0.0728081080753, -5.03125, 3.71, 0.88375, 0.104469488435, 0.094515853804, 0.0861346495373, -0.2275, 1.98625, 0.55125
6.73030209541, -0.442541974224, 0.3222089908, 0.066644567541, -5.1625, 3.71, 0.70875, 0.0875052856327, 0.137582841581, 0.118289066125, -0.4725, 2.3275, 0.7175
6.78047800064, -0.482393099209, 0.394909104293, 0.0044931397374, -5.2325, 4.08625, 0.69125, 0.0601528532262, 0.145994141513, 0.117460729205, -0.21, 2.07375, 0.665
6.83065605164, -0.467788410359, 0.355388874478, 0.0146344431873, -5.145, 3.70125, 0.72625, 0.0856463111132, 0.139380254625, 0.104813190656, 0.09625, 2.19625, 0.455
6.88081693649, -0.463207751152, 0.379354739494, 0.0180627590835, -5.04875, 3.71875, 0.98875, 0.106572660802, 0.128631955622, 0.177374315988, 0.07875, 2.065, 0.7875
6.930975914, -0.445773278433, 0.37490233899, 0.0251008348577, -5.04875, 3.84125, 0.7525, 0.104958855249, 0.158304384054, 0.136718195951, -0.1575, 2.26625, 0.28875
6.98118901253, -0.436813855531, 0.387658394582, 0.0187266762347, -5.01375, 3.98125, 0.6475, 0.0891266727519, 0.152939051084, 0.11542423872, -0.1925, 2.16125, 0.58625
7.03136396408, -0.433469800682, 0.38304296965, 0.0458259969751, -5.0575, 3.7275, 0.9625, 0.115173594436, 0.11662381824, 0.135173520027, 0.1575, 1.9075, 0.7
7.08151102066, -0.443648038552, 0.369927305417, 0.0650015575498, -5.04, 3.675, 0.84, 0.0747381114933, 0.102465292774, 0.130185551222, -0.3325, 2.065, 0.6125
7.13170289993, -0.477083170105, 0.367002005649, 0.0359328854538, -5.25875, 3.68375, 0.805, 0.0725980832786, 0.109027198432, 0.112684516841, -0.35, 2.0475, 0.6825
7.18189501762, -0.476612367785, 0.326221624576, 0.0278506372176, -5.04, 3.5175, 0.6825, 0.0771769474557, 0.0703245307303, 0.122731958641, -0.105, 1.9075, 0.665
7.23207902908, -0.508989166115, 0.370158064316, -0.00572763546837, -5.25875, 3.73625, 0.7175, 0.0813059946952, 0.0723140829024, 0.108187097849, -0.1925, 1.995, 0.67375
7.28226590157, -0.493006224553, 0.376728032096, 0.0130931152706, -5.11875, 3.82375, 0.9275, 0.0913178557031, 0.0884494071509, 0.113139049258, -0.18375, 2.205, 0.62125
7.33241391182, -0.477794037699, 0.384585985398, 0.00846038103228, -5.03125, 3.78875, 0.7, 0.113778466808, 0.113763367813, 0.126131366909, -0.07875, 2.1175, 0.72625
7.38258695602, -0.480513170536, 0.372314648172, 0.0174104086361, -5.215, 3.71, 0.76125, 0.0888330581141, 0.115548327929, 0.131261407196, -0.14875, 2.03, 0.665
7.43276000023, -0.513078168135, 0.398424865019, -0.00185256900472, -5.25875, 4.0075, 0.63, 0.0744022770724, 0.120231645622, 0.136729239829, -0.20125, 2.03875, 0.63875
7.48290205002, -0.518018316189, 0.379674140666, 0.00415691910618, -5.32, 3.71875, 0.8225, 0.103138344429, 0.115537632954, 0.137745684261, -0.0175, 1.89875, 0.6125
7.53307509422, -0.492007336113, 0.368773553939, 0.022412104476, -5.075, 3.675, 0.90125, 0.112064558987, 0.116810482693, 0.116256504252, 0.04375, 2.0125, 0.58625
7.58324503899, -0.470022098026, 0.355127170822, 0.00330142416301, -5.075, 3.75375, 0.63875, 0.118437813502, 0.135917341883, 0.1117789916, -0.14875, 2.17875, 0.4025
7.6335670948, -0.463630399401, 0.373215508366, -0.026930846428, -5.0225, 4.06, 0.60375, 0.130057128936, 0.148018046925, 0.0893609831956, 0.0525, 2.14375, 0.4725
7.68386101723, -0.443928123515, 0.338167061776, -0.0233314856067, -5.06625, 3.57875, 0.81375, 0.125206274438, 0.116782118009, 0.109089896388, -0.11375, 1.89875, 0.63875
7.73422408104, -0.439093602043, 0.379811288035, 0.0161018469928, -5.10125, 3.73625, 0.875, 0.0642918740656, 0.149905414029, 0.111900784467, -0.21875, 1.89, 0.46375
7.78457903862, -0.445840817654, 0.375097143308, 0.0199249960641, -5.04, 3.745, 0.86625, 0.0638864179932, 0.186473385363, 0.116409635418, -0.21, 2.49375, 0.56875
7.83480095863, -0.47883045607, 0.334405817472, 0.0669908221307, -5.17125, 3.6225, 1.015, 0.041718448717, 0.13848909793, 0.16174812422, -0.32375, 2.0825, 0.6475
7.88498902321, -0.474002669417, 0.371918712152, 0.0728700659259, -4.9525, 3.955, 0.7, 0.0229394434608, 0.153163669323, 0.158185980618, -0.5075, 2.135, 0.4725
7.93523192406, -0.511829662228, 0.320579156843, 0.0512072534, -5.2675, 3.57875, 0.65625, 0.0327534492032, 0.124800072152, 0.0986881443008, -0.0525, 2.0475, 0.245
7.98554396629, -0.482783823764, 0.316090955339, -0.0837344122714, -5.11, 3.56125, 0.35, 0.0367652938546, 0.092900558443, 0.0204823968836, -0.13125, 1.70625, 0.0
8.03657388687, -0.476417397249, 0.326196173824, -0.14406737394, -4.9525, 3.70125, 0.42875, 0.06447214922, 0.106823257105, -0.111672832672, -0.16625, 1.93375, -0.14
8.08673906326, -0.431855782594, 0.339217010718, -0.173747115602, -4.89125, 3.92, 0.55125, 0.0924579467814, 0.125827904429, -0.106076495018, 0.06125, 2.205, 0.3675
8.1368830204, -0.436215683901, 0.412653278682, -0.249177663638, -5.13625, 4.41, 0.1225, 0.0634259368929, 0.196983102588, -0.218964460964, -0.25375, 2.89625, -0.27125
8.18711495399, -0.47290970396, 0.504861655732, -0.332413907547, -5.38125, 3.98125, 0.1925, 0.0400850088833, 0.279381313096, -0.306903713381, -0.23625, 2.45875, -0.1575
8.23731708527, -0.553224924187, 0.575487897029, -0.452381738601, -5.18, 4.4975, -0.21, -0.00666027852409, 0.398430227247, -0.392459807055, -0.0875, 2.8525, -0.525
8.28747296333, -0.626837188591, 0.613132696593, -0.673146708267, -5.62625, 4.2175, -0.88375, -0.0992848256045, 0.45427848407, -0.601697443714, -0.93625, 2.84375, -1.015
8.33768105507, -0.736600622759, 0.68956248424, -0.835778833696, -5.83625, 4.48, -0.84, -0.17886070874, 0.521653072097, -0.797954929409, -0.76125, 2.695, -1.09375
8.38786697388, -0.819471853991, 0.724756051011, -1.04229351976, -5.7225, 4.31375, -0.46375, -0.241372956671, 0.610457589559, -0.940696143539, -0.455, 2.7475, -0.76125
8.43809008598, -0.878547201733, 0.725027401319, -0.969412751009, -5.6875, 4.1825, 0.34125, -0.278027094904, 0.586033147542, -0.877418876267, -0.42875, 2.54625, -0.00875
8.48821997643, -0.928349660063, 0.744852475562, -0.613566395486, -5.29375, 3.8325, 1.68, -0.319282752185, 0.521905664558, -0.450744110798, -0.245, 2.00375, 2.0125
8.53838992119, -0.957638224651, 0.765718005205, -0.126543780344, -5.64375, 4.4975, 2.73, -0.40955902927, 0.545718588292, 0.0214297702534, -1.12875, 2.8525, 2.70375
8.58857798576, -0.936824461968, 0.893044084216, 0.402607037922, -5.04875, 4.43625, 3.675, -0.389407813708, 0.591257056517, 0.555878113905, -0.385, 2.09125, 3.7275
8.63883399963, -0.707730032774, 0.915452887393, 1.83035103064, -4.50625, 4.85625, 8.12875, -0.273341796193, 0.477571394201, 1.98033064504, -0.28875, 2.21375, 7.72625
8.68910288811, -0.495086326547, 0.791466838789, 3.06682933482, -4.27, 3.885, 9.68625, -0.0345968549167, 0.246782829303, 3.20448782248, 0.7525, 1.435, 9.1175
8.73931097984, -0.225227932053, 0.669395575477, 4.78714908509, -4.68125, 2.87, 10.92875, 0.176642892766, -0.0786803174384, 4.87913587259, -0.16625, -0.35875, 10.29875
8.78944611549, -0.276372124963, 0.973572916136, 5.54189825892, -5.18, 7.2975, 9.26625, 0.0710657431402, 0.242818942875, 5.5458700568, -0.95375, 4.43625, 9.00375
8.83970689774, -0.54871142122, 0.77510656207, 5.79755758972, -6.93, 3.29, 7.00875, -0.190939248056, 0.162683343729, 5.769524746, -1.67125, 2.7475, 7.28875
8.88996195793, -0.787553126069, 0.941773933749, 5.71187248291, -6.11625, 1.785, 5.95, -0.431784461833, 0.211551157578, 5.62490903984, -1.56625, -0.04375, 5.5125
8.94015789032, -0.961630532116, 1.35178688634, 5.55566171116, -6.265, 7.62125, 5.59125, -0.543210414085, 0.620968937638, 5.47610882227, -0.97125, 4.41, 5.25
8.99041104317, -0.852908231014, 1.08723487793, 5.13696848604, -4.83875, 2.2925, 3.9375, -0.419177935409, 0.361097339487, 5.02491814604, -0.175, 0.5425, 3.4475
9.04064798355, -0.679682600409, 1.39172297601, 3.89303177632, -4.9525, 5.74, 1.2075, -0.238405464913, 0.748194960486, 3.98614457846, 0.20125, 2.695, 0.6475
9.09082198143, -0.740467906332, 1.02158311057, 2.86912573882, -5.80125, 4.4625, -1.07625, -0.215423426579, 0.597062917994, 2.95608460855, -0.1575, 3.91125, -0.9275
9.14101409912, -0.775004004129, 1.22034481956, 1.73876184844, -5.74875, 3.99875, -2.66875, -0.253245475529, 0.802245963575, 1.83814853293, -0.525, 2.5725, -3.14125
9.19117903709, -0.68168166901, 1.08417762346, 0.593702887516, -5.46875, 5.69625, -0.88375, -0.0575294516609, 0.834749807446, 0.685212030505, -0.0525, 3.98125, -0.86625
9.24137496948, -0.518787151898, 0.782796375003, 0.0255193388877, -4.57625, 3.1325, -1.575, 0.0468486441547, 0.710222344031, 0.148541744709, 0.1575, 3.255, -1.39125
9.29161906242, -0.578642593037, 0.725665063753, -0.501996835501, -5.32875, 3.4825, -2.3975, 5.74017652688e-05, 0.665967598665, -0.402098686786, -0.53375, 2.61625, -2.4325
9.34181809425, -0.803195450324, 0.483079831476, -1.23650144308, -5.3725, 3.12375, -2.51125, -0.153799154113, 0.532437879427, -1.22213569267, -0.1575, 2.45875, -3.15
9.39200997353, -0.982788314763, 0.540644663495, -1.66957116889, -6.405, 3.50875, -2.3625, -0.271929814832, 0.589862182336, -1.61725991106, -0.53375, 2.24, -2.52875
9.44216990471, -0.752752681462, 0.329676209688, -1.93457313212, -3.6575, 2.79125, -2.1175, -0.139050335012, 0.429663280923, -1.82274697516, 0.32375, 2.65125, -2.19625
9.49230790138, -0.635767171984, 0.573537729847, -2.10760923702, -4.06, 3.47375, -2.695, -0.0456082713599, 0.559639757548, -2.04014254988, 0.35, 2.26625, -3.0975
9.54247999191, -0.626789268376, 0.552639005059, -2.31774288379, -5.9325, 4.66375, -2.17, -0.0835856798214, 0.728362383252, -2.23692091886, -1.155, 3.185, -1.93375
9.59267091751, -0.650636807385, 0.446225094098, -2.58466423587, -5.27625, 4.10375, -3.29875, -0.0946569006553, 0.632186030434, -2.52113594428, -0.2275, 3.43875, -3.395
9.6428630352, -0.653503313982, 0.431692326219, -2.82887053105, -4.41875, 3.395, -3.57875, -0.0792995895308, 0.630233184652, -2.79702511487, 0.4725, 2.9225, -4.10375
9.6930680275, -0.724786415893, 0.287769955814, -2.92160986714, -5.87125, 2.51125, -1.96, -0.257316650768, 0.448628741611, -2.79917080874, -2.1175, 1.2425, -1.6275
9.74323701859, -0.441924297186, -0.107798202212, -2.48791184314, -6.51875, 0.00875, 0.07, 0.11837016159, 0.0819053526345, -2.38296626957, -2.1525, 0.245, -0.3675
9.79339599609, -0.25344618072, 0.809808456208, -2.25323859295, -2.975, 8.75, -0.70875, 0.099027330888, 0.791405835634, -2.04075767835, -0.525, 5.0225, -0.7
9.84360408783, -0.458303906384, -0.138392650471, -2.19536576029, -3.68375, 3.24625, -0.77875, 0.0593846380193, 0.145038726863, -2.05686871946, 1.96, 4.66375, -0.42
9.89378499985, -0.697417297754, -0.0469194921935, -2.10769363925, -5.74875, 1.435, -1.09375, -0.140159598884, 0.0684444818835, -2.05619429649, -0.23625, 0.91, -2.03
9.9439868927, -0.96579551118, 0.318195211323, -1.94578684779, -8.07625, 4.66375, 0.34125, -0.340244275096, 0.278690030326, -1.87669738016, -3.03625, 1.6975, -0.525
9.9941470623, -0.884281864056, -0.169974378828, -1.86215484671, -5.59125, 1.47875, 0.0, -0.235700362828, -0.127636075436, -1.81722987793, -0.70875, 1.05, -0.2975
10.0445311069, -0.767505809885, 0.377595753149, -1.81628792584, -4.13875, 3.24625, 0.175, 0.0169802061095, 0.232914778897, -1.63667370112, 1.365, 0.0875, -0.0525
10.094712019, -0.562334235407, 0.303554804046, -1.37169089793, -4.6725, 4.57625, 1.49625, 0.0727375702538, 0.281623623816, -1.23109337812, -0.07875, 3.8675, 0.46375
10.1449348927, -0.536690407611, -0.248698547851, -0.911517164594, -6.37875, 0.455, 1.4, 0.0637196887151, -0.424745128238, -0.859667822647, -1.47, -0.35875, 0.46375
10.195086956, -0.405194230165, 0.523741676241, -0.606846403321, -5.5125, 3.99875, 2.38, 0.0648229478592, 0.226756446127, -0.555498436344, -1.645, 0.46375, 1.28625
10.2453219891, -0.456882326434, 0.144743257755, -0.31675058669, -6.2125, 3.6225, 2.8525, 0.0106790877659, -0.139514778637, -0.257846233439, -1.16375, 1.07625, 2.7125
10.2954990864, -0.21819346597, 0.226957834904, -0.205920677697, -3.92, 1.18125, 0.1575, 0.279789054981, -0.0178425236265, -0.082725654177, 1.93375, -0.1575, -0.44625
10.3457920551, -0.424674207436, 0.646348346272, -0.0115132489347, -5.06625, 8.68, 1.1375, 0.151726634535, 0.400335055863, 0.124137220117, 0.72625, 6.755, 0.56875
10.3959760666, -0.477959997221, 0.275116694432, -0.0584426584734, -6.02875, 1.26875, -0.14875, -0.019896033424, -0.0269057442762, 0.039929033465, -0.91875, 0.11375, -0.09625
10.4461650848, -0.193997597749, 0.91749452249, -0.102318553363, -4.82125, 8.19, -0.35875, -0.00605578707348, 0.645606347136, -0.0173999828933, -0.77875, 5.4775, -0.3675
10.4964449406, -0.319238054177, 0.147720563217, -0.216170528224, -3.49125, -1.2775, -0.945, -0.12172018753, -0.0451588588196, -0.166123986144, 0.86625, -0.18375, -1.225
10.5467350483, -0.401082823883, 0.986066156206, -0.289140627862, -5.075, 10.64, -0.1225, -0.0813583518989, 0.773883824356, -0.220440428776, 0.9625, 7.735, -0.28
10.596914053, -0.445843128611, 0.668852227874, -0.282130517711, -5.4425, 7.41125, 0.91875, 0.198623761466, 0.544871307956, -0.251806822578, 0.62125, 4.57625, 1.02375
10.6470999718, -0.344995434175, 0.202082804578, -0.396643219346, -4.725, -1.37375, -0.09625, 0.226157746787, -0.082391740556, -0.376031026288, -0.6125, -2.3625, -0.1575
10.6972839832, -0.0162088016815, 0.949162071708, -0.60664850767, -3.4825, 10.10625, -0.32375, 0.577460274898, 0.78292519015, -0.444190131293, 1.26, 6.4575, 0.25375
10.7474648952, -0.483918716426, 0.0190716502752, -0.828191262092, -4.22625, 0.58625, -1.44375, 0.2897987904, -0.0790975363809, -0.740770355713, -1.82, 2.835, -1.5575
10.7977221012, -0.388961660305, 0.122448036723, -1.09340242229, -6.43125, -1.35625, -1.12875, 0.394247020224, -0.117056504469, -1.05944148813, -0.7175, -4.19125, -2.82625
10.8479130268, -0.308546444847, -0.0149295902544, -1.21389846206, -5.215, 7.00875, 0.35, 0.712125086382, -0.0663407686195, -1.21046510538, 2.05625, 5.53, -0.5425
10.8980910778, -0.0894941082934, -0.162924921295, -1.43762522884, -5.4075, -0.9275, -0.76125, 0.759494437972, -0.449064920324, -1.46704356182, -0.34125, -3.01, -2.03
10.9482960701, -0.0740277277177, 0.0914933137507, -1.48554393536, -4.6025, 9.345, -0.74375, 0.715375494758, 0.0921699145379, -1.52618528508, 0.595, 8.82, -1.225
10.9985029697, -0.635084963506, -0.557903874276, -1.78154352888, -3.84125, -5.5475, -2.86125, -0.0583435143218, -0.422690632302, -1.85591982282, 1.95125, -6.0725, -4.2
11.0487411022, -0.78878132044, 0.647697861837, -1.79640525839, -4.55875, 6.9475, -0.58625, -0.170635746601, 0.421708087835, -1.77135005649, -0.81375, 1.2075, -0.7
11.0988988876, -0.697850369556, 0.0214977680877, -1.7139432593, -4.2, 6.7725, -0.11375, 0.0803575452535, 0.145183551147, -1.62243604575, 1.33, 6.74625, 0.56875
11.1491069794, -0.664621299341, 0.759400692151, -1.40888654003, -4.62, 5.6, 0.16625, 0.0179246116553, 0.221498676429, -1.28192819706, -0.51625, -0.7875, 0.5075
11.19927001, -0.541765177219, 1.00163685458, -1.10848778768, -4.61125, 9.07375, 0.62125, 0.145394791897, 0.601872535117, -1.12034140566, 0.8575, 3.89375, 0.18375
11.249464035, -0.219954793548, 0.494913352208, -1.05243010802, -2.09125, 2.21375, 0.55125, 0.222854781436, 0.252179253444, -0.986969038582, 2.26625, 2.2225, 0.595
11.2996919155, -0.181013382774, 0.972242315289, -0.796498387498, -4.57625, 7.1225, 0.81375, 0.516247372963, 0.58291519529, -0.693874921251, 1.47, 4.3225, 1.225
11.3499109745, -0.164531256042, 0.754858397845, -0.613249324486, -5.6, 7.5775, 1.47, 0.65295083489, 0.422148927366, -0.497260567592, 0.7875, 3.9025, 1.47875
11.4001700878, -0.126407817394, 1.00893530225, -0.671236952834, -3.68375, 6.51, -0.42, 0.474987676261, 0.795665631167, -0.47562355975, -0.56, 4.50625, 0.70875
11.4503691196, -0.17639254888, 0.590070085344, -0.636392488616, -4.585, 4.33125, 0.175, 0.288876265994, 0.442642745121, -0.580609075058, 0.21875, 1.2075, 0.23625
11.5005509853, -0.036352964593, 0.522219269128, -0.584370415779, -4.97875, 4.10375, 0.69125, 0.326299775455, 0.308703123548, -0.620223350797, -1.21625, 2.1875, 0.245
11.5507330894, -0.100531311188, 0.898381597195, -0.260158033103, -4.69, 1.6275, 0.91875, 0.589449036307, 0.536408327066, -0.315731072731, 0.86625, 0.77875, 0.00875
11.6009290218, -0.373117862063, 0.794526593728, -0.310245506813, -6.8425, 5.10125, 0.07, 0.405963719409, 0.786453244924, -0.279497168912, -1.05875, 7.0875, -0.0525
11.6511569023, -0.807122921444, 1.79112738683, -0.298364724467, -9.26625, 10.73625, 0.8575, -0.0253859485511, 1.47745691555, -0.138024186137, -2.82625, 5.7575, 1.6975
11.70165205, -0.230198859732, 1.078633115, -0.0463573841363, -5.11875, 0.48125, 1.33875, 0.522323893506, 0.713848591435, 0.107480868306, 2.695, -2.695, 0.1925
11.7532799244, -0.162098576383, 0.682142823148, 0.24635801885, -7.9975, 4.4625, 2.8175, 0.67481735374, 0.660067359063, 0.196917003328, -0.63, 4.64625, 0.4725
11.8034720421, -0.0277498468704, 0.71273568675, 0.209844995268, -5.355, -2.2575, 1.44375, 0.672249556529, 0.198867060841, 0.113522772696, -0.95375, -5.775, -0.385
11.8536529541, -0.553853388369, 0.668998065641, -0.51402624845, -5.0925, 5.3725, -2.2225, 0.30417767671, 0.667370337353, -0.580378898705, 0.39375, 4.69875, -2.905
11.9038720131, -0.730596244579, -0.156549066831, -0.857391261244, -6.1075, -0.70875, -1.5575, -0.0505060818649, -0.106280026744, -0.949649407951, -1.9425, 1.785, -2.24
11.9540901184, -0.569257958109, 0.531970255867, -0.997004421608, -3.85, 4.76, -0.30625, 0.194812573689, 0.401850678337, -1.12634602044, 1.6275, 1.47, -1.33875
12.0042729378, -0.488074051461, 0.487843816527, -1.06478447335, -6.265, 7.34125, -0.4725, 0.12363611622, 0.361465394508, -1.1221857489, -1.015, 5.52125, -0.34125
12.0545010567, -0.207352481684, 0.481940991387, -1.07390542342, -3.92, 3.71, 0.455, 0.364305254138, 0.361599469551, -1.03650045661, -0.0175, 3.0275, -0.035
12.1046490669, -0.0286474591473, 0.378843732721, -1.13833655367, -3.52625, 3.325, -1.11125, 0.482982530267, 0.269918513303, -1.11401833287, 0.88375, 1.35625, -1.5225
12.1548769474, -0.0185294419093, 0.157575923504, -1.25178260847, -5.005, 2.94, -1.37375, 0.571288349516, -0.0356910042246, -1.24618484962, 1.02375, -1.1725, -2.05625
12.2051010132, -0.0470838479465, -0.155438501962, -1.39582391286, -4.585, 2.24, -0.84, 0.475078563108, -0.198272213422, -1.3562147282, 1.33875, 0.945, -1.56625
12.2553310394, -0.034346625153, 0.37955408207, -1.36558638248, -5.18, 5.87125, 0.41125, 0.586425022506, 0.315275806415, -1.19009753685, -0.76125, 3.07125, 0.88375
12.3055090904, -0.101283266374, -0.0422236935234, -1.28999246981, -4.47125, 4.08625, -0.805, 0.57466426823, 0.140785903196, -0.927446504852, 0.46375, 5.08375, 2.03875
12.3557150364, -0.430864445763, 0.070173808246, -1.29517390054, -6.09875, 2.31875, -1.77625, 0.159488057266, 0.0949115815892, -1.01429916893, -2.065, 1.5575, -1.77625
12.4058899879, -0.552312701068, 0.381103284679, -1.33445835944, -6.3525, 7.37625, -1.19, 0.00904532638541, 0.357090881087, -1.14073732683, -0.175, 5.425, -1.5575
12.4560770988, -0.0954722090785, 0.198504294531, -1.16211714403, -1.26, 5.01375, 0.62125, 0.533695542935, -0.0186969976874, -0.908178261261, 4.3225, -0.55125, 0.90125
12.5062229633, -0.422132489354, 0.0612884785703, -0.923494886666, -3.64875, 6.1075, -0.63875, 0.482428389777, 0.100655431873, -0.677654391622, 4.17375, 4.57625, 0.245
12.5564138889, -0.466139816376, 0.612693667642, -0.779385858199, -5.60875, 4.795, -1.61875, 0.26117699572, 0.306005899817, -0.519892557214, 0.37625, 1.42625, -1.155
12.606703043, -0.171035751265, 0.41305687079, -0.729245045141, -2.695, 7.18375, -1.89875, 0.356975866533, 0.388952278852, -0.510755471343, 1.7325, 7.5775, -1.75875
12.6569480896, -0.370582562672, 0.0664247088059, -0.250499137908, -8.0325, 0.9975, 2.555, 0.411130656702, 0.0275074612831, -0.161860238609, -2.07375, 1.085, 2.02125
12.7071220875, -0.291384375764, 0.549129014133, -0.0840218017055, -7.42875, 2.35375, 3.01, 0.373175831929, 0.455181043639, 0.0659007067266, -2.96625, -0.6475, 2.5725
12.7573900223, -0.303446344369, -0.112155498552, -0.201962659381, -7.0175, 4.06875, 0.6475, 0.142844923863, 0.115071645348, -0.0611129275514, -3.94625, 5.27625, 1.26875
12.8076090813, -0.762291135045, -0.189151358445, -0.224239028689, -7.5075, 2.2225, -0.09625, 0.230887949496, -0.301616520541, -0.134353324185, 2.135, -0.9625, -0.58625
12.8577539921, -0.619168319387, 0.26318739966, -0.0620511132382, -5.95875, 6.90375, 1.89875, 0.117366739092, 0.161378118361, 0.0845938074102, 0.5425, 1.12, 1.42625
12.9080550671, -0.531851338703, 0.124006793724, 0.113333598277, -4.725, 6.27375, 1.96875, 0.120264558664, -0.153533724127, 0.203665984002, -0.91875, 2.45, 1.58375
12.9582519531, -0.613842125915, -0.0293877973749, 0.161659443144, -5.2675, 0.77, 0.97125, 0.0786881132662, -0.294569834889, 0.188966752338, -0.1225, -0.88375, 0.245
13.0084199905, -0.409762121991, 0.0495958841263, 0.149901648947, -5.15375, 3.00125, 0.65625, 0.0374848717456, -0.20697656626, 0.267033069393, -1.575, 0.56875, 0.88375
13.0586431026, -0.193444818813, 0.182522666142, 0.358602835647, -1.86375, 5.95875, 2.63375, 0.341772746114, -0.0508885186705, 0.474816786209, 0.21875, 3.01875, 2.73875
13.1088120937, -0.238990303238, 0.0578808595753, 0.406988296874, -6.51875, 2.1525, 1.4525, 0.292098831917, -0.292138980111, 0.474704437146, 1.53125, 2.1525, 2.03
13.1597349644, -0.517727681061, 0.32020764663, 0.460459968421, -7.83125, 3.56125, 2.14375, 0.114272553853, 0.0623924261103, 0.531118094088, -2.52, 1.16375, 1.39125
13.2099189758, -0.478209421659, 0.241068193771, 0.562905074421, -5.60875, 4.4625, 2.79125, 0.0442582686208, 0.0066503651493, 0.587225656212, -1.575, 4.27875, 1.56625
13.2601480484, -0.755065918389, 0.0689787132588, 0.669393299253, -6.67625, 2.065, 0.945, -0.252879222175, -0.208079383806, 0.600243003378, -3.255, 2.2225, 0.86625
13.3103189468, -0.929453393895, 0.96017275774, 0.706153572395, -5.67875, 8.75875, 1.61, -0.305722169962, 0.458693199117, 0.705079332736, -0.77, 4.29625, 1.68875
13.3605349064, -0.76675652415, 0.535700940392, 0.586282704276, -4.01625, 3.15, 1.46125, 0.145750038098, 0.344436092156, 0.541127083565, 2.0825, 2.2575, 0.81375
13.4106891155, -0.635210284561, 0.499267761718, 0.625621490463, -5.2325, 1.015, 1.70625, 0.142992530859, 0.202468234647, 0.657720437688, 0.945, -0.0875, 0.79625
13.4608569145, -0.648532830495, 0.564344386991, 0.681985907275, -5.64375, 4.64625, 1.95125, 0.271133949996, 0.438786770064, 0.757061054527, 2.40625, 5.11875, 0.97125
13.5113890171, -0.622399092701, 0.518968953463, 0.527703584893, -2.3625, 5.215, 0.55125, 0.186103499497, 0.224379783752, 0.596376954167, -0.0175, 0.9975, -0.46375
13.5616431236, -0.263613938579, 0.395765867074, 0.530322663387, -3.01875, 3.255, 1.72375, 0.378395951133, 0.0304191123549, 0.628658049588, 1.4, 0.09625, 1.89875
13.6117930412, -0.126427290249, 0.52128285233, 0.588256357344, -3.29875, 2.345, 1.63625, 0.388135720418, 0.242814481008, 0.594308020166, 1.81125, 0.56, 1.3825
13.6620299816, -0.111818605102, 0.260351610388, 0.568770149448, -6.1775, 2.86125, 0.8225, 0.311412433538, 0.0169922296161, 0.525096996334, -0.42875, 1.645, 0.945
13.7122960091, -0.0378605701323, 0.719684804414, 0.530236321053, -5.08375, 6.7725, 0.28, 0.361616571166, 0.431176205989, 0.526523567031, -0.2975, 3.94625, 0.315
13.762583971, 0.146207938193, 0.191369691575, 0.388161420053, -4.87375, 1.6275, 0.14, 0.275931922645, -0.0266097731489, 0.437029089295, -0.72625, 1.085, 0.2275
13.8127651215, -0.130036913057, 0.292798505158, 0.318661425219, -5.92375, 0.98, 1.1725, 0.229505871608, -0.0224572746255, 0.354459706096, -0.8225, -1.16375, 0.42
13.8629601002, -0.329817399576, 0.372604289178, 0.306823254427, -6.1075, 4.795, 1.0325, 0.114759756002, 0.123509607553, 0.372644861938, -1.02375, 2.52, 0.95375
13.913216114, -0.485952093657, 0.140184474234, 0.205009336086, -5.69625, 1.70625, 0.63, -0.0254345976381, -0.0890947178818, 0.29156233817, -0.63, 0.46375, 0.35
13.9634280205, -0.769101576276, 0.358961981717, 0.0660035560067, -6.5625, 3.0275, 0.4725, -0.204372821678, 0.0974799506642, 0.140421944526, -1.19875, 0.28875, -0.23625
14.0138709545, -0.734059776783, 0.270359205191, 0.0196578803654, -4.865, 5.74875, 0.5775, -0.218394485559, 0.148296260038, 0.104424275066, 0.58625, 3.61375, 0.7175
14.064385891, -0.674504577275, 0.205438110584, 0.0158710947864, -5.3025, 1.09375, 0.3325, -0.136991829973, -0.0572807764323, 0.092915796523, 0.13125, -0.4025, 0.16625
14.1146569252, -0.725686207593, 0.604767369573, 0.043450586777, -5.845, 7.0525, 0.48125, -0.172740882278, 0.37635257109, 0.116606795184, -0.32375, 4.6375, 0.315
14.1650619507, -0.823056495335, 0.396222912419, -0.0183302722396, -5.6875, 4.9525, 0.84, -0.268490353181, 0.158366024324, 0.0997056036888, -0.9275, 2.84375, 1.14625
14.2152559757, -0.822475761222, 0.265978059059, -0.0451525205141, -4.9875, 2.2925, 0.21875, -0.209954686076, -0.0406485202972, 0.039506538988, 0.62125, -0.035, 0.4025
14.2654280663, -0.72629857993, 0.331333005054, 0.00039556254524, -4.76875, 2.765, 1.07625, -0.15386046615, 0.0468809787034, 0.0993332669222, -0.13125, 0.84, 0.91
14.3155579567, -0.672264349744, 0.363042234094, 0.0451779056616, -4.41875, 4.73375, 0.9625, -0.0906794775812, 0.12367359275, 0.152692446207, 0.5075, 3.29875, 1.04125
14.365694046, -0.625946960963, 0.295692788654, 0.0792139432273, -4.78625, 2.6775, 1.05, -0.0288813391567, 0.00951304911455, 0.152244543285, 0.09625, 1.02375, 0.525
14.4158349037, -0.601316584542, 0.401295042929, 0.0167624646127, -4.94375, 4.05125, 0.72625, -0.0136154962452, 0.107520012805, 0.0554930220547, 0.07875, 1.68, 0.25375
14.4659769535, -0.575048540131, 0.332399086295, 0.0138128367027, -4.97875, 4.80375, 1.015, 0.00779455323723, 0.0980208393345, 0.117506163078, -0.11375, 3.185, 1.2075
14.5161390305, -0.560667885756, 0.208997683909, 0.156580057956, -4.62875, 3.255, 1.155, 0.0320360881222, 0.0754968798609, 0.182199992093, 0.23625, 1.19, 0.63
14.5663819313, -0.603115987462, 0.269550623967, 0.160574846945, -5.32875, 4.50625, 0.95375, 0.00637205824105, 0.0976709754186, 0.228705544236, -0.32375, 3.26375, 1.1375
14.6165549755, -0.61349530486, 0.216599904872, 0.183673313423, -5.18, 3.31625, 1.14625, 0.0203004804577, 0.0553333910802, 0.266536841748, -0.13125, 1.93375, 0.8925
14.6667380333, -0.502665577243, 0.255690080651, 0.232204595485, -4.75125, 3.36, 1.1025, 0.0797168002537, 0.0319505420974, 0.323857107634, 0.14875, 1.54, 0.945
14.7168900967, -0.469334117567, 0.190471465328, 0.263305722343, -4.99625, 3.4475, 0.84875, 0.115843108205, -0.0338450609011, 0.329131757184, -0.04375, 1.9075, 0.735
14.7671399117, -0.461683321706, 0.224366198224, 0.174529121588, -5.15375, 3.36875, 0.58625, 0.102546125882, -0.0693555493969, 0.248257550987, -0.0525, 1.47, 0.51625
14.8173480034, -0.425918391524, 0.243562958505, 0.225800979638, -4.97, 3.7625, 1.28625, 0.128141375768, 0.00416605448968, 0.289829004669, -0.04375, 2.12625, 1.0325
14.8675251007, -0.403774507421, 0.25176489675, 0.262583164156, -5.1975, 3.955, 1.16375, 0.128320312935, -0.00395919627703, 0.291749594404, -0.175, 2.45875, 0.84
14.9176950455, -0.462994851011, 0.279954566368, 0.208899862966, -5.285, 3.57875, 0.8225, 0.101136953477, 0.000243051015609, 0.260249671467, -0.09625, 1.68875, 0.7
14.9678809643, -0.458356996387, 0.271661878882, 0.0938910001024, -5.11, 3.3075, 0.48125, 0.0916415890848, 0.0354346841904, 0.1573725105, -0.07875, 1.8725, 0.32375
15.0180621147, -0.425744167073, 0.211546121894, 0.0633342100829, -4.7775, 3.63125, 0.7175, 0.128477187159, -0.0119479058058, 0.0721292335047, 0.175, 2.00375, 0.175
15.0682659149, -0.417615275329, 0.245452358735, 0.0977332101672, -5.03125, 3.54375, 1.04125, 0.158139021599, -0.0191778037027, 0.113944679139, 0.315, 1.65375, 0.70875
15.1184430122, -0.469830873017, 0.233978910575, 0.0944464002354, -5.635, 4.06, 0.6825, 0.125027607495, -0.0210090209992, 0.122265190102, -0.20125, 2.45, 0.51625
15.1709759235, -0.499486706429, 0.290330625809, 0.0914006757716, -5.03125, 3.43875, 0.86625, 0.0631378758637, 0.0368119236916, 0.0921230735847, -0.16625, 1.96875, 0.5425
15.2211809158, -0.516660808987, 0.393124776215, 0.0920765926375, -5.15375, 3.885, 0.84875, 0.0783777615047, 0.0313108923712, 0.0776832206432, -0.13125, 1.4875, 0.4375
15.2713429928, -0.492045255279, 0.390343568734, 0.0625645400364, -5.03125, 4.03375, 0.63, 0.0726709868188, 0.115961822821, 0.032955908721, -0.1575, 2.765, 0.42875
15.3215019703, -0.482290991099, 0.324284211607, 0.0267712996865, -5.03125, 3.49125, 0.74375, 0.00360239939089, 0.111883668836, -0.00954964254238, -0.5075, 2.07375, 0.51625
15.3716900349, -0.47978070279, 0.320670211402, 0.0584047527461, -4.935, 3.66625, 0.77875, 0.00265294350662, 0.0939882717574, 0.0676472895407, -0.315, 1.91625, 0.72625
15.4219360352, -0.50653486926, 0.306280371235, 0.0575153497243, -5.3725, 3.78, 0.72625, 0.0150088842404, 0.0675055001235, 0.0455643045279, -0.18375, 1.9775, 0.37625
15.4722208977, -0.49243391969, 0.333964640631, 0.040065439949, -5.08375, 3.5, 1.02375, 0.0196317266112, 0.11134025959, 0.0539181280009, -0.16625, 2.0475, 0.77
15.5224149227, -0.496571474949, 0.395273858911, 0.0933230063587, -5.32, 4.12125, 1.225, 0.0357616985551, 0.146573110268, 0.0921061836807, -0.27125, 2.1, 0.7875
15.572633028, -0.501147894709, 0.366709325718, 0.0877241351506, -5.1275, 3.6225, 0.6825, 0.0245894758296, 0.135999219317, 0.0966135087814, -0.25375, 2.28375, 0.5075
15.6228179932, -0.491674315243, 0.358023598448, 0.0803226445248, -5.0225, 3.50875, 0.98875, 0.0627709778798, 0.128284680882, 0.110129247902, 0.0, 1.9775, 0.7875
15.6730370522, -0.459643695347, 0.374336614743, 0.0813938420651, -5.075, 3.9375, 1.02375, 0.0803294920826, 0.158460591514, 0.0820746908003, -0.49, 2.23125, 0.5075
15.7232170105, -0.494755253908, 0.353757642148, 0.0675616108654, -5.52125, 3.84125, 0.875, 0.0499079497282, 0.143512771214, 0.0649416995934, -0.49875, 2.24875, 0.53375
15.7733840942, -0.493464255665, 0.35933119014, 0.072019904801, -5.215, 3.64875, 0.9625, 0.0304479392799, 0.133432844683, 0.0804727766707, -0.2625, 2.1175, 0.62125
15.8236479759, -0.49037794238, 0.371816187612, 0.0639042605999, -5.075, 3.85875, 0.58625, 0.082756797735, 0.144106293774, 0.0854826541929, -0.035, 2.10875, 0.42875
15.8738040924, -0.488256133328, 0.375446111966, 0.0249574510859, -5.1275, 3.71875, 0.56875, 0.110255506165, 0.126126097957, 0.0835484498963, -0.06125, 2.205, 0.6825
15.9240500927, -0.483212467995, 0.393698850692, 0.0402230353796, -4.9525, 3.91125, 0.84, 0.070491959994, 0.169487139345, 0.086531744416, -0.4375, 2.24875, 0.58625
15.9742848873, -0.489930639169, 0.374505212155, 0.0125055927917, -5.0925, 3.70125, 0.63875, 0.0522738888356, 0.171431124583, 0.117260891679, -0.0175, 2.0475, 0.5425
16.0245039463, -0.520706317727, 0.387774221845, 0.00957453016131, -5.25875, 3.78875, 0.7525, 0.0647393499568, 0.167071710912, 0.11243882226, -0.09625, 2.19625, 0.525
16.0746669769, -0.463626155623, 0.374429907725, 0.000365332487592, -4.92625, 3.61375, 0.76125, 0.0928802361185, 0.143901527255, 0.0774696514277, -0.02625, 1.95125, 0.53375
16.1248281002, -0.461074686054, 0.356125725257, 0.0282659193149, -5.04875, 3.70125, 0.9275, 0.121780491256, 0.150285237076, 0.103395417656, -0.04375, 2.1175, 0.79625
16.1749379635, -0.475542196134, 0.360143153713, 0.0394451051806, -5.34625, 3.73625, 0.8575, 0.119343228126, 0.132110437829, 0.120060759472, -0.18375, 2.00375, 0.65625
16.2251429558, -0.472564178868, 0.358728454507, 0.0435580351963, -5.075, 3.70125, 0.7875, 0.132015514782, 0.113871954641, 0.104819215172, -0.06125, 1.79375, 0.56
16.2753300667, -0.465951984883, 0.349532548151, 0.060802008509, -5.1275, 3.68375, 0.91875, 0.136067566973, 0.117911283259, 0.140773564289, -0.0525, 2.02125, 0.90125
16.3255360126, -0.40614024698, 0.345510477602, 0.0712664142031, -4.9175, 3.59625, 0.9275, 0.121813506323, 0.105088575496, 0.127674428367, -0.175, 1.89, 0.70875
16.3757069111, -0.424398600054, 0.334538486858, 0.0730082955045, -5.25, 3.885, 0.84, 0.127016440122, 0.173884246152, 0.0940112869772, 0.02625, 2.42375, 0.35875
16.4259340763, -0.406324079439, 0.362212306919, 0.0272185474228, -4.9175, 3.745, 0.74375, 0.154520234849, 0.138262865445, 0.117874728206, -0.16625, 1.89875, 0.74375
16.4761300087, -0.405647504346, 0.342904468605, 0.0387295234124, -5.01375, 3.52625, 0.98, 0.145633890228, 0.12270542101, 0.133848529847, -0.21, 1.785, 0.72625
16.5262959003, -0.488572030668, 0.352639857613, 0.0511593225677, -5.39, 3.66625, 0.84875, 0.121656105976, 0.114078501916, 0.170619828259, -0.37625, 2.10875, 0.665
16.576513052, -0.498868344841, 0.353525784666, 0.0505090512798, -5.15375, 3.94625, 0.69125, 0.0848014458405, 0.146341086552, 0.179197060889, -0.4025, 2.17, 0.7525
16.6266760826, -0.480483773389, 0.313430297022, 0.074901598383, -5.0225, 3.80625, 0.88375, 0.0641142540177, 0.175697652097, 0.161232657388, -0.34125, 2.16125, 0.5075
16.6768460274, -0.481991856445, 0.307503540588, 0.0757777946902, -5.06625, 3.70125, 0.90125, 0.0800175457544, -0.0175974018017, 0.140005952485, -0.1575, 2.0475, 0.58625
16.7270550728, -0.495550903721, 0.301740367876, 0.0512875136991, -5.355, 3.68375, 0.8225, 0.068574212061, 0.0283086045406, 0.136199821513, -0.14875, 2.135, 0.58625
16.7773089409, -0.473804108812, 0.299469978182, 0.0361290974866, -4.935, 3.73625, 0.76125, 0.0970758505925, 0.0689757227101, 0.139923919883, -0.1225, 2.1175, 0.46375
16.8275160789, -0.445518828138, 0.312558182327, 0.0387720689642, -5.03125, 3.84125, 0.8925, 0.0897414389799, 0.0838203353952, 0.145320875105, -0.1225, 1.93375, 0.56
16.8777480125, -0.437395250792, 0.293409627685, 0.048962875861, -5.0925, 3.54375, 0.91, 0.0915880655737, 0.0863944716701, 0.132367408835, -0.13125, 1.93375, 0.56
16.9279050827, -0.460178637827, 0.344619368582, 0.0538069365027, -5.04, 3.85, 0.84, 0.0922141998033, 0.124007819848, 0.167816341041, -0.02625, 2.205, 0.7525
16.9780879021, -0.44305719664, 0.350529188552, 0.0408411185671, -5.10125, 3.82375, 0.77, 0.0866785018406, 0.165408834076, 0.147788736243, -0.11375, 2.17, 0.4375
17.0283300877, -0.482401196351, 0.368304528454, 0.0342274254355, -5.3375, 3.92875, 0.805, 0.102127627842, 0.163768040042, 0.0940959887211, 0.07875, 2.16125, 0.44625
17.0785160065, -0.503057469044, 0.348364168048, 0.0378442146027, -5.20625, 3.57875, 0.875, 0.148783378552, 0.144502112434, 0.116512750864, 0.175, 1.89875, 0.6825
17.1287438869, -0.544901549926, 0.367999976119, 0.0543363138282, -5.355, 3.6925, 0.97125, 0.102487036627, 0.162321711071, 0.1053578282, -0.28, 2.17, 0.8225
17.1789369583, -0.507741979896, 0.337168232591, 0.0748304227808, -5.0225, 3.68375, 0.77875, 0.112392049701, 0.155305027371, 0.139568856758, -0.07875, 2.09125, 0.8575
17.2291250229, -0.540821003716, 0.313868768398, 0.0617201424524, -5.27625, 3.59625, 0.76125, 0.126997560258, 0.149984572171, 0.118083273974, -0.1575, 1.95125, 0.46375
17.2792880535, -0.524542261709, 0.315967832162, 0.0801694838478, -5.11, 3.675, 0.8925, 0.081758971428, 0.150511253112, 0.109024456727, -0.30625, 2.03875, 0.3325
17.3294389248, -0.536491731984, 0.327233944052, 0.0998197819167, -5.215, 3.815, 1.0675, 0.0635097668567, 0.130964115021, 0.112504809949, -0.245, 2.0125, 0.56875
17.3796329498, -0.501545802907, 0.330321994682, 0.0655115233525, -4.92625, 3.7625, 0.69125, 0.0726154111539, 0.162030933167, 0.0780488960585, -0.21875, 2.21375, 0.46375
17.4298460484, -0.483477100355, 0.303948315692, 0.0749968339156, -5.005, 3.47375, 0.79625, 0.0642409830347, 0.164095055865, 0.0729771058074, -0.2975, 2.10875, 0.62125
17.4800229073, -0.484138556159, 0.29660832214, 0.0996831919244, -5.17125, 3.59625, 0.9625, 0.0616031766323, 0.136849045726, 0.0821620601336, -0.2275, 1.95125, 0.3675
17.5301840305, -0.503152230488, 0.301840240933, 0.0970758854588, -5.15375, 3.71, 0.7875, 0.0757960730721, 0.151835227038, 0.0931087687082, -0.14, 2.05625, 0.56875
17.5804209709, -0.520461726026, 0.29594653564, 0.0687825704995, -5.3375, 3.68375, 0.8225, 0.10183308727, 0.165090380511, 0.0976867923883, 0.0, 2.03875, 0.5075
17.6305999756, -0.500407848273, 0.321391274482, 0.0939892438941, -5.11, 3.815, 0.8225, 0.0760228206195, 0.160385887392, 0.138299171651, -0.21875, 2.00375, 0.69125
17.6807699203, -0.502212321391, 0.331750489097, 0.0919599087988, -5.2325, 3.73625, 1.05, 0.0516071362316, 0.170597561909, 0.151735596134, -0.385, 2.1, 0.8225
17.7309250832, -0.509741980327, 0.329692896169, 0.097645026127, -5.0575, 3.7275, 0.91875, 0.0501992803476, 0.179521525146, 0.156638332868, -0.23625, 2.24875, 0.735
17.7811570168, -0.498945653658, 0.361777371307, 0.0717699740466, -5.24125, 3.92875, 0.875, 0.0615955253734, 0.164597441832, 0.118204844661, -0.07875, 1.91625, 0.46375
17.8313369751, -0.509922631517, 0.348889453683, 0.07598081108, -5.11, 3.64, 0.95375, 0.0868958879972, 0.157917785095, 0.112910581758, -0.175, 2.02125, 0.8225
17.8815360069, -0.507937331529, 0.352675457483, 0.0748144569748, -5.1975, 3.77125, 0.79625, 0.0923456692778, 0.150000905927, 0.0962275712238, 0.0175, 1.89875, 0.595
17.9316968918, -0.485808814684, 0.360069158505, 0.0941602391346, -5.075, 3.89375, 0.9275, 0.0834389929035, 0.167165660421, 0.0983241494222, -0.14, 2.14375, 0.525
17.9818680286, -0.480842125905, 0.35126666655, 0.0972033143291, -4.97875, 3.64, 0.8925, 0.0561472758266, 0.159860016447, 0.0790100549288, -0.385, 1.93375, 0.315
18.0320880413, -0.478082121983, 0.336225999906, 0.0843046846066, -5.11875, 3.745, 0.81375, 0.0614892934196, 0.168199113322, 0.103943144492, -0.105, 2.065, 0.6475
18.0822339058, -0.470440616926, 0.325922503931, 0.0425411150782, -5.01375, 3.5525, 0.74375, 0.0511971949029, 0.155809653612, 0.118491302335, -0.28, 2.09125, 0.42
18.1323919296, -0.496588709739, 0.352265005366, 0.056326722892, -5.075, 3.6225, 0.79625, 0.0800680050842, 0.110981487483, 0.131030659402, -0.0525, 1.89, 0.7
18.182600975, -0.470711854888, 0.359784654346, 0.0586321455425, -4.99625, 3.815, 0.84875, -0.102972415882, 0.0971075048612, 0.138554834116, -0.14, 1.98625, 0.6825
18.2327930927, -0.510243942214, 0.332719263019, 0.0604270841005, -5.22375, 3.33375, 0.88375, -0.0238428911778, 0.108980121044, 0.16117947407, 0.0, 2.12625, 0.63
18.282957077, -0.536022593193, 0.326452603045, 0.0576659381214, -5.22375, 3.56125, 0.81375, -0.031652741854, 0.131448898045, 0.125437873997, -0.34125, 2.1175, 0.4725
18.3331329823, -0.516915800486, 0.336339108466, 0.0666294098783, -5.08375, 3.7975, 0.91, -0.0490037209018, 0.112023607417, 0.107599677938, -0.34125, 1.9775, 0.48125
18.3833401203, -0.477181618555, 0.340206210072, 0.0548120898013, -5.18, 3.6575, 0.7, -0.0046947125374, 0.0971302098069, 0.0801019152165, 0.1225, 2.00375, 0.63
18.4335091114, -0.481242111029, 0.342842030158, 0.0603802927391, -5.18, 3.885, 0.83125, 0.00975728284471, 0.110912969944, 0.0703525513254, -0.27125, 2.205, 0.35
18.4837489128, -0.484618609934, 0.328089544428, 0.0598155371186, -5.18875, 3.6925, 0.79625, 0.0263633991042, 0.125227005654, 0.0705930665735, -0.175, 2.44125, 0.455
18.533946991, -0.508000716642, 0.337316027888, 0.0450410265595, -5.285, 3.78875, 0.8575, 0.056381667947, 0.131605487122, 0.108756595532, -0.04375, 2.12625, 0.58625
18.5841419697, -0.50743058048, 0.347588482589, 0.0613907315132, -5.145, 3.7275, 0.93625, 0.027466651037, 0.163337944569, 0.085512842381, -0.37625, 2.37125, 0.41125
18.6343100071, -0.508368770189, 0.343834170897, 0.0437464925257, -5.1275, 3.70125, 0.76125, 0.03930798734, 0.150191235101, 0.0720229023286, -0.1575, 2.03, 0.4725
18.6844830513, -0.499808333467, 0.316943860584, 0.0661566930512, -5.215, 3.675, 0.9275, 0.0389732727709, 0.123563160388, 0.0428089457976, -0.27125, 1.95125, 0.2975
18.7347071171, -0.509632250109, 0.292499527073, 0.0637944213715, -5.24125, 3.64875, 0.72625, 0.0571158509444, 0.132061159915, 0.057207746096, -0.0175, 2.02125, 0.48125
18.7849369049, -0.516364622588, 0.309887116929, 0.0688809813109, -5.1975, 3.745, 0.79625, 0.042323839265, 0.139907039531, 0.0795457743378, -0.28875, 2.03875, 0.60375
18.8350920677, -0.513617309867, 0.339017708241, 0.0376584853757, -5.1625, 3.71875, 0.72625, 0.0848518288242, 0.158354731818, 0.0438743694922, 0.175, 2.10875, 0.21
18.8852651119, -0.511805020992, 0.327879343676, 0.0566358731543, -5.1275, 3.66625, 0.90125, 0.0915649813476, 0.176342332773, 0.0411832392887, -0.13125, 2.2925, 0.44625
18.9354929924, -0.451624567004, 0.324982268377, 0.046720057255, -4.92625, 3.49125, 0.81375, 0.0895651348915, 0.160987289546, 0.0362909238239, -0.0875, 2.135, 0.56875
18.9857869148, -0.454311809346, 0.294092073647, 0.0562756717389, -5.0225, 3.54375, 0.84875, 0.0851307333359, 0.104509734079, 0.0393790834676, -0.20125, 1.8025, 0.63
19.0364949703, -0.45930506557, 0.304352079654, 0.0683907941085, -5.075, 3.6925, 0.805, 0.0484783940021, 0.108052884604, 0.0752545576088, -0.3675, 2.10875, 0.7525
19.0869739056, -0.4608908928, 0.329741416068, 0.0466986389051, -5.215, 3.8325, 0.98875, 0.0868447492275, 0.130285552876, 0.0867098224968, -0.035, 2.14375, 0.65625
19.1388189793, -0.459646623168, 0.335415547015, 0.0411208975131, -5.04875, 3.8325, 0.98, 0.130891746874, 0.12823129783, 0.0834924562224, 0.175, 1.96, 0.42
19.1890180111, -0.440963764766, 0.310174093082, 0.0702904269856, -4.85625, 3.605, 0.88375, 0.0981448149682, -0.0678576487579, 0.10757388954, -0.3675, 0.07875, 0.805
19.2391879559, -0.438253834515, 0.340373163857, 0.0473309712725, -5.005, 3.68375, 0.7875, 0.0937040701118, -0.0276069759445, 0.0983093654748, -0.20125, 2.0825, 0.51625
19.2895309925, -0.462923105957, 0.358464762724, 0.0332330867307, -5.1625, 3.70125, 0.77, 0.0698602967906, -0.00631165051505, 0.0665505860346, -0.2625, 2.00375, 0.46375
19.3397500515, -0.450088444243, 0.348347062026, 0.0376324202267, -5.005, 3.6225, 0.62125, 0.0676421563603, 0.0146613067745, 0.0377521272192, -0.25375, 1.9425, 0.3325
19.3899691105, -0.464546639836, 0.341998620241, 0.0317647603836, -5.075, 3.61375, 0.7, 0.0987126466519, 0.0426256584874, 0.0524992230475, 0.0875, 2.05625, 0.65625
19.440144062, -0.475907778268, 0.332393882395, 0.0552744559107, -5.1975, 3.71875, 0.9275, 0.060179743788, 0.0591517833748, 0.0469443706685, -0.455, 2.1525, 0.63875
19.4903099537, -0.489348020357, 0.317266390266, 0.0786993283589, -5.18875, 3.8325, 0.81375, 0.0277900332215, 0.10470790008, 0.0690029462173, -0.28875, 2.21375, 0.595
19.540471077, -0.447084396489, 0.340623276116, 0.0758789559707, -4.87375, 3.78875, 0.84, 0.0344949269094, 0.132800899065, 0.082012386436, -0.11375, 2.12625, 0.44625
19.5907289982, -0.464738361156, 0.321829853654, 0.0570569543363, -5.25875, 3.71875, 0.76125, 0.0599633907966, 0.146543728243, 0.0786375330132, -0.1575, 2.24875, 0.4725
19.6409521103, -0.466794265283, 0.322873963313, 0.0387250197112, -5.11, 3.75375, 0.6475, 0.0702010618907, 0.109634127889, 0.103648511567, 0.07, 1.9425, 0.7175
19.6911609173, -0.479040854879, 0.329765410284, 0.054524765966, -5.0925, 3.745, 0.84, 0.0793478601315, 0.11815364359, 0.133350294369, -0.0875, 1.995, 0.72625
19.7413299084, -0.445134533207, 0.317213984097, 0.0664365543892, -4.99625, 3.49125, 0.91, 0.0823723400359, 0.116579006177, 0.142554114595, -0.1575, 2.02125, 0.6825
19.7915608883, -0.474883971898, 0.302605827119, 0.0940336090553, -5.32875, 3.61375, 0.8925, 0.065056595429, 0.111353995003, 0.112888832822, -0.37625, 2.0125, 0.49
19.8418130875, -0.475706017237, 0.321310719966, 0.0856747233348, -5.04875, 3.675, 0.81375, 0.0911058422975, 0.127684235953, 0.0999724545858, 0.16625, 2.17875, 0.42
19.8920450211, -0.466004686566, 0.296849264855, 0.0585111233111, -5.06625, 3.54375, 0.7525, 0.100350159035, 0.0995605580096, 0.080202919393, 0.035, 2.07375, 0.46375
19.9422221184, -0.482688796118, 0.316997904533, 0.059526509882, -5.04875, 3.71, 0.76125, 0.0719186288183, 0.0959940519878, 0.0944093647083, -0.4375, 2.09125, 0.62125
19.9924769402, -0.481677924856, 0.305493302672, 0.0863364730044, -5.01375, 3.68375, 0.91875, 0.0296390893428, 0.10386768211, 0.0759040854138, -0.315, 2.065, 0.455
20.042746067, -0.485759119133, 0.309824575164, 0.0966775431336, -5.2675, 3.8675, 0.88375, 0.0529676623677, 0.157845322509, 0.0975773091851, -0.07, 2.49375, 0.5775
20.0929639339, -0.537523397848, 0.325304615295, 0.0843734289444, -5.39, 3.675, 0.79625, 0.102113675866, 0.155856740109, 0.062173108396, -0.0875, 2.0475, 0.63875
20.1431601048, -0.569668952257, 0.342496738389, 0.100337477445, -5.43375, 3.87625, 1.015, 0.0925970774515, 0.138268959488, 0.0764802178007, -0.0875, 2.07375, 0.76125
20.1951780319, -0.569696166195, 0.340206372285, 0.0729627710574, -5.215, 3.6575, 0.65625, -0.118730230538, 0.142696821467, 0.103195828777, -2.1525, 2.05625, 0.5775
20.2453770638, -0.547341394618, 0.352992161551, 0.0378073445565, -5.1625, 3.7975, 0.72625, -0.0894364867357, 0.364559425388, 0.0763711213092, -0.16625, 2.2225, 0.42
20.2956130505, -0.518909029641, 0.343048650856, 0.0634939490907, -5.075, 3.73625, 0.945, -0.0517960542559, 0.333218134565, 0.0885056082604, 0.04375, 2.14375, 0.42
20.3458080292, -0.481119682608, 0.326591216474, 0.0499188388871, -4.9875, 3.815, 0.84875, -0.0105715735525, 0.264663520098, 0.0703560884218, -0.25375, 1.98625, 0.7875
20.3960471153, -0.479181942913, 0.353426385344, 0.0159042594986, -5.1275, 3.92, 0.63875, -0.000777974577564, 0.213714951279, 0.0611459316217, -0.2975, 2.065, 0.6125
20.4465069771, -0.462711136383, 0.340579084916, 0.0451509551745, -5.06625, 3.70125, 0.9275, 0.022665606533, 0.189690699482, 0.0249833841522, -0.1925, 2.00375, 0.32375
20.4966619015, -0.49682102047, 0.332644058782, 0.0415297736913, -5.2325, 3.70125, 0.91, 0.0530941412917, 0.196036966581, 0.0383940411633, 0.11375, 2.19625, 0.51625
20.5468571186, -0.497637523923, 0.349368768852, 0.024649455021, -5.08375, 3.70125, 0.72625, 0.0553058790016, 0.188327198637, 0.094173506008, -0.28875, 2.03, 0.65625
20.5970170498, -0.495711394378, 0.33775120277, 0.00313605856699, -5.04875, 3.6575, 0.7, 0.0524077619913, 0.197207530896, 0.105638039867, -0.1575, 2.1875, 0.53375
20.6472840309, -0.473851229446, 0.320815974244, 0.0106477074393, -4.90875, 3.61375, 0.83125, 0.033522787213, 0.196088100026, 0.103549312292, -0.315, 2.38, 0.5775
20.6975009441, -0.517170046266, 0.343624845224, 0.0105101787232, -5.15375, 3.7275, 0.7875, 0.0625458618783, 0.196099474919, 0.0621254486608, -0.02625, 2.0125, 0.65625
20.7480959892, -0.528420237475, 0.348323624631, 0.00480824476581, -5.32, 3.7625, 0.67375, 0.0736721481214, 0.181103074684, 0.0431041134152, -0.1925, 1.995, 0.34125
20.7983019352, -0.505157892355, 0.319142135951, 0.0126146782603, -5.075, 3.535, 0.5775, 0.102721939978, 0.158805990494, 0.0363593318663, -0.07875, 2.00375, 0.49875
20.8484489918, -0.487015392808, 0.306092630121, 0.0231378893908, -4.9875, 3.64875, 0.91875, 0.0683272713824, 0.1523828523, 0.0402585588117, -0.28, 2.2225, 0.6475
20.8986151218, -0.463591721357, 0.306947777358, 0.0359342713659, -5.11875, 3.78875, 0.84875, 0.0202633308378, 0.123620849327, 0.0876402393738, -0.3675, 2.14375, 0.63875
20.9488179684, -0.469446794299, 0.33629019966, 0.0216392598064, -5.0225, 3.71875, 0.69125, 0.0598107979786, 0.140770387955, 0.0826710938927, -0.1225, 2.17875, 0.735
20.9990179539, -0.466534213044, 0.323633055552, 0.0359355203989, -5.1975, 3.73625, 0.84, 0.0253773217264, 0.131001612819, 0.0710814774478, -0.385, 2.0825, 0.56875
21.0492949486, -0.505342712566, 0.332917774997, 0.0550652715231, -5.22375, 3.68375, 0.805, 0.0407656305984, 0.120148806383, 0.0480834967327, -0.23625, 2.1175, 0.27125
21.0995941162, -0.52471858746, 0.302992057973, 0.0559455829403, -5.24125, 3.5875, 0.8925, 0.0790258947062, 0.119337229854, 0.0403896191182, -0.2625, 2.2225, 0.44625
21.1514699459, -0.525872055843, 0.323198566958, 0.0630484221817, -5.1625, 3.99, 0.84875, 0.089820974712, 0.364013156181, 0.0701230914857, -0.07, 4.45375, 0.70875
21.2018909454, -0.517706365233, 0.323028339236, 0.0751892219671, -4.85625, 3.64875, 0.77, 0.0688149895168, 0.548550656507, 0.114419704103, -0.4025, 2.2575, 0.49
21.2529969215, -0.518436690255, 0.330458909303, 0.0563709428141, -5.3025, 3.6925, 0.74375, 0.0272951273577, 0.453123428594, 0.0950749642914, -0.30625, 2.0475, 0.39375
21.3031880856, -0.547296219106, 0.347196716535, 0.0559554636794, -5.29375, 3.77125, 0.97125, 0.0417940531598, 0.384392477161, 0.086418221076, -0.0525, 2.05625, 0.58625
21.3535270691, -0.552091443728, 0.351463906354, 0.0860470330223, -5.3375, 3.85, 1.05, 0.0570256147535, 0.30392086585, 0.102364383164, -0.25375, 1.96875, 0.6125
21.403742075, -0.54699406942, 0.350298264147, 0.081043096748, -5.215, 3.71875, 0.91875, 0.0471507479503, 0.225738401339, 0.0777976503632, -0.1925, 1.74125, 0.4725
21.4539740086, -0.53910269623, 0.334304093959, 0.0859149083659, -5.15375, 3.63125, 0.86625, 0.0599771058397, 0.219285605084, 0.0784610967942, -0.23625, 2.1525, 0.48125
21.5041639805, -0.539098183947, 0.313823816107, 0.0869735757764, -5.32, 3.7975, 0.8575, 0.0587289557302, 0.196471340118, 0.0692859884033, -0.07875, 2.19625, 0.49
21.5543599129, -0.529857576097, 0.316110061942, 0.060761736741, -5.145, 3.61375, 0.79625, 0.0865911587273, 0.190708856946, 0.037934985546, 0.035, 2.0475, 0.41125
21.6045889854, -0.517172136639, 0.320261650173, 0.0442870067602, -5.0575, 3.6575, 0.63, 0.0834363385691, 0.201236674126, 0.0251723382923, -0.14, 2.16125, 0.27125
21.6548550129, -0.54173348761, 0.293896992976, 0.0308769779282, -5.285, 3.71875, 0.84875, 0.0910403408169, 0.176350285438, 0.0345898846151, -0.2975, 2.17, 0.7175
21.7050549984, -0.512966624964, 0.304981564311, 0.0126428521218, -5.0925, 3.85, 0.67375, 0.0776776760617, 0.164318731205, 0.0460878065382, -0.21, 2.07375, 0.665
21.7552270889, -0.511752669599, 0.286336560382, 0.0483558891968, -5.22375, 3.75375, 1.07625, 0.264869775849, 0.163113355048, 0.0920560109663, 2.03875, 2.30125, 0.72625
21.8054130077, -0.491657162375, 0.29448261391, 0.0541007702494, -5.15375, 3.7275, 0.805, 0.208154518438, 0.162084317589, 0.0886103688827, -0.14, 2.21375, 0.65625
21.8555629253, -0.478354801524, 0.321905917267, 0.030579123902, -5.0575, 3.7625, 0.665, 0.146902659935, 0.157838297247, 0.114081898795, -0.3325, 2.1875, 0.6475
21.9058189392, -0.526114400311, 0.369934413688, 0.0718876813246, -5.4425, 3.9025, 0.90125, 0.135417289092, 0.170919118693, 0.132891204222, 0.09625, 2.1525, 0.65625
21.9559910297, -0.531465164252, 0.378296875087, 0.0811240218729, -5.13625, 3.84125, 0.97125, 0.334123004165, 0.156069486142, 0.130874375419, -0.13125, 2.0825, 0.63
22.0061531067, -0.524914354739, 0.343510921938, 0.0933524119454, -5.0575, 3.465, 1.0325, 0.274237170036, 0.158700905397, 0.0983991696808, -0.16625, 2.17, 0.385
22.0563321114, -0.529968127339, 0.33816884677, 0.0726104536757, -5.24125, 3.6225, 0.8225, 0.244704607729, 0.387585233372, 0.108360827441, -0.07875, 4.41, 0.5425
22.1065080166, -0.52299176483, 0.349537589295, 0.0577372707296, -5.0925, 3.6225, 0.76125, 0.169212409035, 0.345614635128, 0.108525543205, -0.23625, 2.275, 0.7
22.1566751003, -0.516598329512, 0.330975447329, 0.068437189291, -5.08375, 3.5175, 0.9275, 0.140909551318, 0.272022854454, 0.0945131899959, -0.14, 1.81125, 0.62125
22.2071681023, -0.530211432215, 0.326942351103, 0.0621762109931, -5.1275, 3.91125, 0.91875, 0.123496736568, 0.237701012107, 0.120788183897, -0.2275, 2.16125, 0.455
22.2580029964, -0.496633760094, 0.329823304393, 0.0516452309044, -4.94375, 3.57875, 0.77875, 0.149845620958, 0.0511552878263, 0.138357586061, 0.0875, 2.2225, 0.76125
22.3081920147, -0.490523345676, 0.336969376559, 0.0699776370326, -5.08375, 3.745, 0.945, 0.132222452976, 0.0893357831393, 0.113864644709, -0.2275, 2.19625, 0.53375
22.3586800098, -0.490692768998, 0.345136925511, 0.0805366973968, -5.17125, 3.7975, 0.98875, 0.292006668219, 0.158028285909, 0.124455325993, -0.035, 2.345, 0.6475
22.4088420868, -0.494986142888, 0.332660909664, 0.0939047248914, -5.06625, 3.64875, 0.91875, 0.241860401258, 0.138190411586, 0.105753814054, -0.385, 2.12625, 0.53375
22.4590559006, -0.505638775739, 0.345655336828, 0.074457827162, -5.2325, 3.675, 0.6475, 0.237816925019, 0.0985842333846, 0.063043089384, -0.11375, 1.82, 0.37625
22.5092079639, -0.528714417514, 0.374087740548, 0.0484002560011, -5.1625, 3.815, 0.70875, 0.181498788339, 0.0754066561374, 0.0599226621609, -0.175, 1.96875, 0.6475
22.5593559742, -0.534708678186, 0.376323569844, 0.0145867073609, -5.0925, 3.78, 0.55125, 0.125486518554, 0.112916891471, 0.0560198563504, -0.23625, 2.19625, 0.4725
22.6095199585, -0.510846376398, 0.355013632416, 0.0161379596661, -5.08375, 3.80625, 0.83125, 0.0950861720261, 0.121065163883, 0.0584514752794, -0.13125, 2.21375, 0.51625
22.6596770287, -0.536649508394, 0.345629938031, 0.0233063225966, -5.285, 3.815, 0.88375, 0.071375569407, 0.11411650447, 0.0428903754787, -0.18375, 2.0825, 0.35
22.7098870277, -0.518473601799, 0.336560249805, 0.0269856213032, -5.2675, 3.84125, 0.91, 0.0942992112197, 0.123884368621, 0.0302362041377, -0.105, 2.12625, 0.53375
22.7600328922, -0.558266005712, 0.320846172108, 0.0500092679301, -5.355, 3.5875, 1.015, 0.0894043749792, 0.127047954725, 0.0253489428164, -0.32375, 2.17, 0.385
22.8102140427, -0.546814668164, 0.346175609467, 0.060353506321, -5.13625, 3.75375, 0.79625, 0.0671110393598, 0.0956492089943, 0.0319273793132, -0.07, 1.855, 0.525
22.8603761196, -0.505697893091, 0.332405769301, 0.071324456108, -4.89125, 3.57, 0.91875, 0.0888866976933, 0.0681482733569, 0.0723355595193, -0.07875, 1.89, 0.7
22.9105551243, -0.506090293404, 0.362336173134, 0.0891553094475, -5.1975, 3.78875, 0.875, 0.0824957251316, 0.0618876014191, 0.0567118032106, -0.2625, 2.0125, 0.48125
22.9607150555, -0.500343573892, 0.333581820215, 0.0770259705872, -5.1275, 3.75375, 0.74375, 0.0903721336209, 0.0379360614345, 0.0785121545405, -0.04375, 2.03875, 0.62125
23.0109069347, -0.478565794852, 0.311313774374, 0.0668235361757, -4.92625, 3.63125, 0.93625, 0.0949864282329, 0.0298032097619, 0.0747523451778, -0.23625, 1.88125, 0.76125
23.061109066, -0.493320393002, 0.318086217367, 0.0526077470848, -5.1625, 3.68375, 0.95375, 0.0929769455636, 0.0637112609248, 0.119277838671, 0.14, 2.10875, 0.60375
23.1113140583, -0.467977018332, 0.307774836067, 0.0650697751387, -4.90875, 3.5875, 0.84875, 0.100246325907, 0.0729936213491, 0.0910600493237, -0.07875, 1.82875, 0.5075
23.1614880562, -0.485675246364, 0.341634105493, 0.0591701160761, -5.25, 3.78, 0.76125, 0.0995410715859, 0.0701998499635, 0.0521632759569, -0.1925, 2.03, 0.42
23.2117400169, -0.474856004599, 0.340417512904, 0.0692017646195, -4.99625, 3.78875, 0.84, 0.0487231911861, 0.115036940623, 0.0448162781726, -0.41125, 2.205, 0.56
23.261909008, -0.488370863726, 0.360075685452, 0.0623234293418, -5.13625, 3.70125, 0.88375, 0.0180257848607, 0.111154921905, 0.0587461853198, -0.46375, 1.96, 0.4725
23.3120889664, -0.477766109656, 0.344183924695, 0.0437892799902, -5.075, 3.64, 0.77, 0.00936229716348, 0.130656938069, 0.0777464690981, -0.35, 2.2225, 0.49875
23.3622739315, -0.457215548821, 0.349563979003, 0.025026816792, -5.01375, 3.68375, 0.7875, 0.0348809607024, 0.134919619836, 0.0443821399695, -0.07875, 2.0475, 0.2275
23.4124720097, -0.471632094545, 0.319009322992, 0.0334542216015, -5.1275, 3.5, 0.945, 0.044088578169, 0.156134892067, 0.0331945333753, -0.20125, 2.3275, 0.55125
23.4629819393, -0.486073546923, 0.313380296461, 0.0365161275475, -5.34625, 3.71875, 0.91875, 0.0517945734852, 0.134327336317, 0.0580868148306, -0.14875, 2.0825, 0.6475
23.5131499767, -0.509182073008, 0.329338040134, 0.0458230633135, -5.1275, 3.84125, 0.93625, 0.035913604523, 0.110680142417, 0.0586453200128, -0.2625, 1.925, 0.56875
23.5632998943, -0.516437479136, 0.348563812508, 0.0287741812839, -5.24125, 3.99875, 0.76125, 0.0341625196636, 0.110075915357, 0.0682852092103, -0.09625, 2.12625, 0.62125
23.6134679317, -0.490719172291, 0.326936769319, 0.053561878156, -5.1275, 3.605, 0.90125, 0.0642984768348, 0.107654092296, 0.0665354175143, -0.3325, 2.135, 0.3675
23.6636300087, -0.511895029555, 0.291143783148, 0.0433551213064, -5.3375, 3.64875, 0.72625, 0.0590792662362, 0.127749814759, 0.0948886881866, -0.21875, 2.17, 0.51625
23.7138400078, -0.488676476546, 0.292252567915, 0.0516788834323, -4.97875, 3.6925, 0.7525, 0.0820865350862, 0.14300836496, 0.106220603688, 0.0, 2.0825, 0.49875
23.7639989853, -0.469465446002, 0.291487080011, 0.0342173955802, -4.96125, 3.57875, 0.67375, 0.0650000934198, 0.144574275617, 0.0882711889873, -0.28, 2.17, 0.42
23.8141720295, -0.466075310136, 0.328614081328, 0.062788731378, -5.1975, 4.13, 1.12, 0.067704068103, 0.124035896925, 0.106926446772, -0.11375, 2.03, 0.7525
23.8643848896, -0.48143350121, 0.340452405876, 0.0555538724161, -5.075, 3.71875, 0.88375, 0.0630627951635, 0.150556576509, 0.0987304218851, -0.175, 2.17875, 0.46375
23.9146049023, -0.491766272382, 0.357729803883, 0.0326767729914, -5.15375, 3.61375, 0.81375, 0.0969955276742, 0.137050744275, 0.101347477554, -0.1225, 1.9425, 0.62125
23.9648330212, -0.503555680629, 0.364998641146, 0.037200686123, -5.20625, 3.815, 0.8575, 0.0855638774161, 0.169061102863, 0.0988489568189, -0.21875, 2.26625, 0.37625
24.0150659084, -0.483734591179, 0.344929009395, 0.0260435501837, -5.01375, 3.71, 0.70875, 0.0837450666363, 0.194045543987, 0.084030139521, -0.0875, 2.2925, 0.62125
24.0652220249, -0.478237518855, 0.34036749761, 0.0403152756488, -5.0575, 3.7275, 0.84, 0.0818310039754, 0.21750189063, 0.080884413012, -0.07, 2.17875, 0.53375
24.1154470444, -0.483147390272, 0.354785173064, 0.0458378732755, -5.20625, 3.96375, 0.7875, 0.0843931132201, 0.19476403141, 0.0491988745397, -0.0525, 1.9425, 0.53375
24.1656529903, -0.506324447509, 0.375773391164, 0.0539000596178, -5.2325, 3.96375, 0.77, 0.100899079537, 0.179349228898, 0.0387702295395, 0.04375, 2.3275, 0.53375
24.2158849239, -0.519547802482, 0.372701446843, 0.0599915482905, -5.31125, 3.75375, 0.86625, 0.121625754425, 0.169635375407, 0.037048885927, 0.07875, 2.12625, 0.60375
24.2660629749, -0.54994622001, 0.377563171943, 0.0501381541153, -5.31125, 3.70125, 0.805, 0.116451861085, 0.18276715408, 0.0304045976008, -0.07, 2.17875, 0.4725
24.3162500858, -0.562056438208, 0.359801169273, 0.0605319048334, -5.24125, 3.57875, 0.98875, 0.137898507478, 0.161291394805, 0.0577477240567, -0.02625, 2.03875, 0.595
24.3664879799, -0.566528214949, 0.343226447112, 0.061600842915, -5.25875, 3.59625, 0.72625, 0.116420291058, 0.158071029792, 0.0700081564859, -0.21, 2.03875, 0.63
24.4167029858, -0.559120318698, 0.335313329944, 0.0839150144851, -4.96125, 3.745, 0.945, 0.094286892181, 0.142712530718, 0.0890714460782, -0.30625, 2.0475, 0.5425
24.4668951035, -0.574212458145, 0.321291297255, 0.0784411617329, -5.24125, 3.70125, 0.83125, 0.0870448826666, 0.140222149882, 0.0835678713234, -0.16625, 2.07375, 0.4725
24.5170741081, -0.558168381988, 0.363912605699, 0.0624778569033, -5.25875, 3.7625, 0.93625, 0.0532022194639, 0.126743197264, 0.0684627281947, -0.21, 1.84625, 0.525
24.5682170391, -0.56661638941, 0.349881710616, 0.0917895640917, -5.2675, 3.6925, 0.91, 0.0317162977658, 0.156511989784, 0.0744873098377, -0.245, 2.24, 0.6825
24.6183800697, -0.585184275422, 0.347791685599, 0.0884945469142, -5.04, 3.9375, 0.67375, 0.0341752011903, 0.134774711725, 0.0811172209686, -0.39375, 1.93375, 0.56875
24.6687750816, -0.561774336783, 0.349587638802, 0.0925742747005, -5.27625, 3.745, 0.86625, 0.0185889716677, 0.110469514847, 0.0616887040861, -0.21875, 1.82875, 0.49875
24.718982935, -0.549149712794, 0.341515987429, 0.0726801625074, -5.04, 3.78, 0.81375, 0.0386795670509, 0.115417807026, 0.0424878503097, -0.0525, 2.28375, 0.39375
24.7691440582, -0.526352640627, 0.322778904836, 0.0790155884679, -5.18, 3.71875, 0.72625, 0.0566714043801, 0.110935831322, 0.0358641428758, -0.30625, 2.23125, 0.4725
24.8193380833, -0.511620638908, 0.282525912917, 0.095735126659, -5.10125, 3.675, 0.98875, 0.0518513375479, 0.164183023371, 0.0570949557294, -0.32375, 2.3975, 0.56
24.8694829941, -0.470740195764, 0.296995140517, 0.102595157334, -5.11875, 3.85, 0.88375, 0.0341611250724, 0.149819424037, 0.0795789727267, -0.3675, 2.02125, 0.30625
24.9196839333, -0.498862058569, 0.287278563818, 0.0855220774409, -5.3375, 3.64, 0.8925, 0.0311680113086, 0.12427873347, 0.0771914679086, -0.3325, 1.95125, 0.44625
24.9698500633, -0.497244190697, 0.269126073024, 0.0561423444544, -5.0925, 3.6225, 0.62125, 0.032575480244, 0.1234854467, 0.0712693301054, -0.2625, 2.02125, 0.34125
25.0200619698, -0.504492794464, 0.300317119149, 0.0362577990081, -5.32875, 3.815, 0.595, 0.0615586389976, 0.136373211827, 0.0453481573854, -0.07875, 1.98625, 0.2975
25.0702800751, -0.535039163516, 0.284806866511, 0.0433388171965, -5.43375, 3.59625, 0.945, 0.0586099975881, 0.0989498015798, 0.0301270074822, -0.1225, 1.68875, 0.4025
25.1204969883, -0.525017300203, 0.262852955686, 0.0486569977363, -5.31125, 3.64, 0.8925, 0.0758994382417, 0.114838155352, 0.0644430884545, -0.0175, 2.1525, 0.735
25.1707129478, -0.535039013165, 0.282285894106, 0.0364071681664, -5.18875, 3.78, 0.8225, 0.0473010449758, 0.0817689058349, 0.0569689016481, -0.3675, 1.8725, 0.4375
25.2209370136, -0.579205940597, 0.279337666803, 0.0345038255933, -5.3725, 3.605, 0.60375, 0.0612852117873, 0.0914895323536, 0.0700633293015, 0.00875, 2.31, 0.63875
25.2711141109, -0.580331811884, 0.277001010111, 0.0482180987306, -5.0925, 3.64875, 0.7875, 0.0873510215478, 0.107044021206, 0.0591587967342, 0.0175, 2.03875, 0.4375
25.3213250637, -0.527693767626, 0.27720831819, 0.0546891599718, -4.935, 3.78, 0.95375, 0.0821268274537, 0.0998681571772, 0.0289761253547, -0.09625, 1.8725, 0.42875
25.3714950085, -0.529025006599, 0.28114861396, 0.0495638976194, -5.145, 3.6925, 0.77, 0.0922207072137, 0.0968613865822, 0.0209040953836, -0.13125, 2.09125, 0.4025
25.4216990471, -0.539860255345, 0.303930377308, 0.0478167570717, -5.18875, 3.675, 0.7875, 0.0837087728431, 0.0957327231316, 0.0168898172607, -0.175, 2.205, 0.42875
25.4718809128, -0.531821876147, 0.304408995057, 0.0239389159053, -4.97875, 3.61375, 0.70875, 0.0990876954026, 0.109071655163, 0.0332681767831, -0.16625, 2.03875, 0.70875
25.522051096, -0.539325719679, 0.338346285996, 0.0391355218833, -5.145, 3.73625, 0.81375, 0.0658210332761, 0.102473040682, 0.0528922231943, -0.39375, 2.0475, 0.74375
25.5722670555, -0.53805383294, 0.342385491657, 0.0613322727255, -5.04, 3.675, 0.93625, 0.0646875369537, 0.105528162952, 0.0795502007874, -0.25375, 2.02125, 0.56
25.6224770546, -0.565294994213, 0.341840273418, 0.0635767268169, -5.355, 3.64, 0.805, 0.0323887144392, 0.0790425307923, 0.103316346374, -0.39375, 1.8025, 0.8225
25.6726169586, -0.563113945313, 0.315290621469, 0.0519921487217, -5.1275, 3.59625, 0.77875, 0.0479323586958, 0.0984494499418, 0.0824187405629, -0.32375, 2.10875, 0.385
25.7228190899, -0.523661316133, 0.314055613051, 0.0406590264181, -5.145, 3.71875, 0.84, 0.0558041894892, 0.129322149008, 0.0874875118704, -0.28, 2.1175, 0.5425
25.7731790543, -0.524440349461, 0.312709041914, 0.0307346802588, -5.075, 3.745, 0.91, 0.0977852541376, 0.125298346626, 0.0577488961535, -0.02625, 1.96875, 0.65625
25.8234889507, -0.522759183063, 0.31916932395, 0.0416650910096, -5.03125, 3.745, 0.83125, 0.0806035558515, 0.105554160767, 0.0642341058843, -0.30625, 1.9075, 0.6825
25.873675108, -0.532509938281, 0.3375271524, 0.0137687237178, -5.11875, 3.71875, 0.62125, 0.0779738802397, 0.0997113702216, 0.0623121257663, -0.1225, 1.9775, 0.51625
25.9238379002, -0.515114745007, 0.346497294099, -0.00912460040973, -5.20625, 3.80625, 0.5775, 0.103954458695, 0.118420838892, 0.0286597896836, 0.06125, 2.10875, 0.4725
25.9740109444, -0.517042943456, 0.357037808221, -0.0241334263319, -5.29375, 3.92875, 0.63, 0.0732631115427, 0.130608379502, 0.0507344296438, -0.28, 2.21375, 0.74375
26.0242319107, -0.480818055779, 0.369138062193, -0.0683340177959, -5.18, 3.7975, 0.49875, 0.0661240583147, 0.152109758657, 0.0288383992103, -0.1575, 2.17, 0.58625
26.0744299889, -0.470362625181, 0.366014330376, -0.0678055544147, -5.13625, 3.70125, 0.665, 0.0861079872349, 0.157896404512, 0.0600666033603, -0.02625, 2.2925, 0.875
26.1246230602, -0.441083103757, 0.326821946844, -0.0467872491683, -5.06625, 3.68375, 0.88375, 0.0841154726942, 0.145122728889, 0.0985103038497, -0.27125, 2.2225, 0.84875
26.175786972, -0.460752314043, 0.324913276944, -0.0371401718263, -5.18875, 3.7275, 0.88375, 0.0846685328823, 0.1561744104, 0.0785258461182, -0.21, 1.9775, 0.46375
26.2259879112, -0.460759374375, 0.324067254324, -0.0263510391793, -5.0925, 3.71875, 0.70875, 0.102791511635, 0.163463772424, 0.0865759353558, -0.175, 2.12625, 0.6825
26.2761850357, -0.483690093244, 0.349369476003, 0.0487131582647, -5.25875, 3.87625, 1.35625, 0.103383624424, 0.144430655664, 0.156534007638, -0.16625, 2.07375, 1.12
26.3263540268, -0.505005077975, 0.388660348006, 0.104068642375, -5.17125, 3.71, 0.72625, 0.0455744122052, 0.149481197979, 0.171862541568, -0.6125, 2.065, 0.49
26.3765099049, -0.50710411316, 0.414027381885, 0.0765656003237, -5.1975, 4.08625, 0.74375, 0.0518752738862, 0.124529770363, 0.13969115867, -0.13125, 2.0825, 0.48125
26.4266660213, -0.436411398493, 0.360642211394, 0.016905572636, -4.795, 3.605, 0.595, 0.090056074663, 0.0637134525945, 0.0542341046706, -0.16625, 1.75875, 0.35
26.4769339561, -0.41794323278, 0.373482691229, -0.0517864861648, -4.90875, 3.71875, 0.4025, 0.0920179204771, 0.0613578966016, 0.0107246247832, -0.1925, 1.84625, 0.18375
26.5271060467, -0.421086866696, 0.371431381906, -0.176281848414, -5.17125, 3.8675, 0.28, 0.0899813140278, 0.0938999066225, -0.131193748533, -0.21, 2.00375, -0.02625
26.5772869587, -0.449280362024, 0.372071919344, -0.235130797215, -5.11, 3.64875, 0.23625, 0.0991323643625, 0.0839714243643, -0.200459436312, 0.0525, 2.05625, 0.07
26.6274878979, -0.464592093239, 0.396303254669, -0.407048445745, -5.22375, 3.815, -0.53375, 0.0631447151336, 0.121166853735, -0.371714643413, -0.35, 2.09125, -0.65625
26.6776709557, -0.493165135972, 0.337746322653, -0.739916566948, -5.36375, 3.71, -1.02375, 0.0543202473324, 0.161781886373, -0.764384475048, -0.25375, 2.42375, -1.77625
26.7278459072, -0.512244884123, 0.325377069214, -1.1762149273, -5.18875, 3.5525, -1.72375, 0.0341409603053, 0.249840245166, -1.22102953231, -0.21875, 2.28375, -2.065
26.7780029774, -0.52784335614, 0.334417926064, -1.47102659112, -5.425, 3.92875, -1.96, 0.0525891778473, 0.279495598584, -1.47540142117, -0.07875, 2.3625, -2.2925
26.828193903, -0.552903118473, 0.305166020112, -1.6606490388, -5.48625, 3.57875, -1.61, 0.0626322340563, 0.255916434853, -1.69045515115, -0.09625, 1.93375, -1.93375
26.8783979416, -0.583610123367, 0.313788528661, -1.86309139929, -5.36375, 3.43, -1.63625, 0.0265328986271, 0.243415581008, -1.91621630519, -0.49875, 1.575, -2.065
26.928622961, -0.590549199927, 0.308493708216, -1.89535903342, -5.1275, 4.08625, -1.12, 0.0429266478879, 0.268779120617, -1.8904527072, -0.035, 2.52, -1.19
26.9788401127, -0.564626616747, 0.316975663289, -1.69332998537, -5.24125, 3.64, 0.0525, 0.0329137763103, 0.289542478929, -1.62079577355, -0.62125, 2.17875, -0.035
27.0290760994, -0.548572559565, 0.375562787264, -1.42115228815, -5.3025, 4.15625, 0.49875, 0.0534326588113, 0.319354407933, -1.32662457658, -0.28875, 2.345, 0.39375
27.0792639256, -0.542481273248, 0.361680857684, -1.0889508534, -5.20625, 3.6925, 1.2775, 0.0689154536372, 0.307364570426, -1.00110840703, -0.245, 2.275, 0.9275
27.1294538975, -0.562161348198, 0.367859095252, -0.664029672128, -5.45125, 3.70125, 1.3475, 0.0688433657015, 0.28242627184, -0.552350028722, -0.25375, 1.9775, 0.97125
27.1796600819, -0.59557569204, 0.352640867154, -0.478481534423, -5.55625, 3.80625, 0.91875, 0.0444731262182, 0.254527780191, -0.387421023265, -0.63, 1.79375, 0.6825
27.2298839092, -0.600140929497, 0.299966442155, -0.468573788595, -5.355, 3.50875, -0.245, 0.0170332322368, 0.220817501954, -0.410978528845, 0.04375, 2.21375, -0.51625
27.2815699577, -0.549076652893, 0.359860318146, -0.732987268762, -4.9175, 3.64875, -1.46125, 0.0847549763006, 0.246974708925, -0.766084097528, 0.00875, 2.05625, -2.02125
27.3317298889, -0.498439588843, 0.324024357698, -1.1498996877, -5.01375, 3.64, -2.44125, -0.0617259691965, 0.230449514229, -1.188620619, 0.21875, 2.17875, -2.66875
27.3818869591, -0.376851210267, 0.291451256762, -1.79703137233, -4.865, 3.7275, -2.6775, 0.0992032684557, 0.247162695873, -1.83679268125, 0.3675, 2.1525, -3.08875
27.4321060181, -0.385536980316, 0.346225517977, -2.15212541159, -4.83875, 3.92, -3.01, 0.117627147449, 0.279339283657, -2.17270707181, 0.28875, 2.17, -3.01
27.4823389053, -0.35491145865, 0.336965902605, -2.58447642505, -4.75125, 3.84125, -2.87875, 0.16094919049, 0.309683337786, -2.60459170535, 0.1925, 2.17875, -3.325
27.5325689316, -0.342828281507, 0.31274238111, -2.78269340429, -4.865, 3.42125, -2.6775, 0.178228844297, 0.324206003607, -2.78088678133, 0.00875, 2.30125, -3.05375
27.582832098, -0.31720340802, 0.330746328699, -3.01692415747, -4.7775, 3.56125, -3.03625, 0.234925363881, 0.350756862921, -3.03209829288, 0.18375, 2.205, -3.57875
27.6330070496, -0.303407534447, 0.299055323622, -3.2055347108, -4.9525, 3.675, -2.87, 0.243248340269, 0.33135800307, -3.14193415551, -0.42, 2.345, -2.6075
27.6831610203, -0.257185102902, 0.343897312134, -3.15283811575, -4.64625, 3.9375, -2.30125, 0.269128655618, 0.358562482486, -3.11148416596, -0.00875, 2.17, -2.59
27.7333800793, -0.319329190016, 0.360004890545, -2.91019223638, -5.32875, 4.48, -1.25125, 0.221903789945, 0.347810799733, -2.88933895699, -0.1575, 2.7125, -1.6275
27.7835531235, -0.371494143913, 0.301653961342, -2.76888571147, -5.18, 2.80875, -1.295, 0.186914569856, 0.242214247783, -2.71560705516, -0.1225, 1.015, -1.49625
27.8337440491, -0.344010256569, 0.258589708687, -2.61697742629, -4.82125, 3.70125, -0.93625, 0.171610801583, 0.229218540705, -2.54014671468, -0.23625, 2.52, -1.1725
27.8839259148, -0.314304727039, 0.246715647633, -2.42145354376, -4.73375, 3.465, -1.435, 0.235373274354, 0.178277816174, -2.335108955, 0.2975, 2.12625, -1.63625
27.9341421127, -0.341874328902, 0.298877174583, -2.36950737045, -5.145, 3.5175, -1.7325, 0.199049852227, 0.182767531101, -2.31086825355, -0.23625, 1.79375, -1.9775
27.9842970371, -0.295125135769, 0.293830210271, -2.30747787306, -5.06625, 3.17625, -1.5575, 0.269603842273, 0.155588780172, -2.26032995684, 0.42875, 1.72375, -1.70625
28.0345261097, -0.328438859973, 0.245339970319, -2.29582457718, -4.96125, 3.24625, -1.47, 0.246901612241, 0.15135191194, -2.24005976504, 0.20125, 1.98625, -1.505
28.084717989, -0.254447976578, 0.320337875959, -2.13474790751, -4.3925, 4.3575, -0.56, 0.305950305916, 0.190007548671, -2.05555340968, 0.62125, 2.1, -0.6825
28.1349511147, -0.167565361028, 0.249398679526, -1.96953830509, -4.5325, 3.31625, -0.55125, 0.338379747792, 0.102668614424, -1.90295326184, 0.18375, 1.49625, -0.525
28.1851630211, -0.184515442433, 0.285475430416, -1.84455602712, -5.15375, 4.87375, -0.41125, 0.296310095711, 0.172099077683, -1.77855964209, -0.1925, 2.91375, -0.60375
28.2354259491, -0.310420008371, 0.188872598637, -1.78383288197, -5.34625, 2.9225, -0.6825, 0.218921177526, 0.0841377529233, -1.73485081009, 0.04375, 1.40875, -0.79625
28.2856049538, -0.319663686102, 0.152465624407, -1.53563992095, -4.73375, 3.35125, 0.28875, 0.211150038417, 0.0444964218811, -1.47803199056, 0.25375, 1.75, -0.07875
28.3358900547, -0.282340085743, 0.165484655769, -1.21056083597, -4.50625, 3.325, 0.98875, 0.281804031117, 0.0810546017237, -1.17379841235, 0.315, 1.9075, 0.805
28.3861169815, -0.346810922507, 0.227063314056, -0.743618349424, -5.73125, 3.17625, 1.435, 0.231459138685, 0.0648588046566, -0.681049792605, -0.55125, 1.12875, 1.155
28.4363489151, -0.33259184723, 0.0382212843852, -0.464548363033, -5.04875, 3.0625, 1.75, 0.231666902334, -0.0335268682282, -0.34808033201, -0.20125, 2.26625, 1.575
28.4865560532, -0.312236896257, 0.195796740352, -0.183901674057, -5.2675, 3.56125, 1.61875, 0.271822690891, 0.0571432367352, -0.0431125689283, -0.06125, 1.82, 1.2425
28.5368111134, -0.369774385968, 0.163570359685, 0.0369471440138, -5.34625, 3.87625, 1.68, 0.257798879622, 0.0402860217555, 0.114836319168, 0.00875, 2.63375, 1.155
28.587018013, -0.339028027371, 0.20318904221, 0.239411217986, -5.005, 4.08625, 1.2425, 0.233069383244, 0.0939472598598, 0.316981176674, -0.5775, 3.395, 1.33875
28.6371850967, -0.42778770217, 0.43625812419, 0.227843086569, -5.355, 4.0075, 0.65625, 0.174696200428, 0.222084780486, 0.267824753106, -0.4375, 1.925, 0.35875
28.6873729229, -0.519770984882, 0.400385922535, 0.215946860109, -5.01375, 6.90375, 1.39125, 0.103773780112, 0.286083554975, 0.309037245014, -0.07, 5.5125, 1.645
28.7375450134, -0.572701997754, 0.273462597253, 0.224061956688, -5.36375, 1.5225, 0.9975, 0.0774917618906, 0.0451276795294, 0.313627668461, 0.23625, -0.07, 0.7
28.7878820896, -0.586493506363, 0.421821733398, 0.213391666426, -4.83875, 4.87375, 0.805, 0.0408479944183, 0.283186828377, 0.328515070308, 0.07, 3.49125, 0.88375
28.8382389545, -0.673384740154, 0.202625604052, 0.154179749805, -5.6175, 1.60125, 0.51625, 0.0160218754788, 0.0427813309853, 0.24750470695, 0.0525, 0.32375, 0.14875
28.8884661198, -0.617941639525, 0.522689239282, 0.267918097342, -5.32, 6.55375, 1.56625, 0.0678377191378, 0.435965378098, 0.396786312629, -0.23625, 4.54125, 1.715
28.9386889935, -0.582670705214, 0.322256705437, 0.467131542962, -5.20625, 5.15375, 1.995, 0.0650389472515, 0.171198760634, 0.547705221907, 0.035, 3.71875, 1.63625
28.9889159203, -0.605363271223, 0.437765431404, 0.464534049799, -5.74, 3.7275, 1.23375, 0.0537290472737, 0.188233496113, 0.528298729744, -0.42, 1.81125, 0.945
29.0391640663, -0.594072324722, 0.649057249493, 0.482399572304, -5.145, 6.1775, 1.505, 0.0332287254625, 0.341879718666, 0.601586523984, -0.30625, 3.45625, 1.54
29.0895450115, -0.613811083024, 0.0988988720896, 0.466488653566, -5.50375, 1.645, 0.90125, 0.0160627676246, -0.13875242788, 0.541842584427, -0.35, 1.12, 0.69125
29.1398530006, -0.63496197725, 0.507533086393, 0.532263309388, -5.06625, 1.155, 1.75, -0.00606665822404, 0.158723033417, 0.582699993386, 0.00875, -0.55125, 1.19
29.1907711029, -0.578488531415, 0.45363161998, 0.609395452544, -4.68125, 5.74875, 1.715, 0.0925551561547, 0.173480341361, 0.615038795178, 0.63, 3.59625, 1.32125
29.2409789562, -0.546130639402, 0.464343700966, 0.601294784905, -5.06625, 4.64625, 1.645, 0.0645692088368, 0.185384668852, 0.598451281685, -0.105, 2.695, 1.32125
29.2913789749, -0.491590817915, 0.167680897782, 0.499093775773, -4.5675, 2.2225, 1.0675, 0.0614860591578, -0.0803634182297, 0.522853038165, 0.23625, 1.05, 0.93625
29.3415620327, -0.44311845626, 0.493728124483, 0.527613612538, -4.69875, 4.27, 1.5225, 0.170781087126, 0.174072568111, 0.536454114822, 0.23625, 1.7675, 1.09375
29.3916959763, -0.425264604614, 0.322879052748, 0.50937957354, -4.935, 5.39, 1.5575, 0.122068412515, 0.115501402153, 0.562714299705, -0.5775, 3.49125, 1.53125
29.4418699741, -0.394564329737, 0.183557032726, 0.508467454568, -4.41875, 2.59, 1.49625, 0.076997914137, -0.0847313642564, 0.523568582761, 0.1225, 0.13125, 1.0675
29.4920721054, -0.485051146378, 0.226386826857, 0.45289702438, -4.59375, 4.83875, 1.63625, 0.0186742294059, 0.0202045854571, 0.467106996833, 0.14875, 2.6775, 1.23375
29.5422360897, -0.57249728571, 0.027423496779, 0.291898680773, -4.41875, 3.0275, 0.69125, 0.0421575132369, -0.159260857202, 0.316396500691, 0.315, 1.9425, 0.35875
29.592443943, -0.723297801425, 0.395213032391, 0.333882931426, -6.545, 4.76875, 1.4175, 0.115607585722, 0.136773705667, 0.36246366556, 0.53375, 2.485, 0.97125
29.6426949501, -0.583831597239, 0.076481550613, 0.31635865701, -4.69, 3.66625, 0.79625, 0.122700679991, -0.0881332185691, 0.290809012193, -0.1225, 2.345, 0.42
29.692882061, -0.687864484387, -0.200761199603, 0.19449721096, -5.565, 2.3275, 0.385, -0.0373634542864, -0.175519116337, 0.180437769889, -0.6125, 0.95375, 0.32375
29.743074894, -0.659770232354, -0.0429290716785, 0.163812740878, -5.25875, 3.22, 0.49, -0.00524189797196, -0.105995484233, 0.13342459361, -0.14875, 1.18125, -0.21
29.7932209969, -0.517683749386, 0.125153456746, 0.1216949881, -5.01375, 5.08375, 0.7525, 0.112598906378, 0.0354067919942, 0.175832028742, -0.0875, 3.22, 0.83125
29.8434350491, -0.607936337002, -0.0693507000355, 0.126192940361, -5.67, 1.505, 0.5775, 0.0222526141665, -0.198607998485, 0.132581443281, -0.49, 0.035, 0.07875
29.8936619759, -0.571745589675, 0.188080839674, 0.00969265352304, -5.355, 4.82125, 0.1225, 0.0218586557274, 0.0882572691047, 0.0763248721517, -0.46375, 3.01875, 0.2975
29.9438750744, -0.561426427637, 0.255232980136, -0.0634914506463, -4.90875, 2.56375, 0.21, 0.0594405111392, -0.153786612025, -0.0241443535572, 0.42, -2.0475, -0.13125
29.9941039085, -0.467699865747, 0.530297342519, -0.168146017521, -4.12125, 6.0725, 0.3325, 0.10167863262, 0.239232059834, -0.120598233743, 0.8225, 3.5875, 0.07875
30.0443389416, -0.512936891255, 0.125290847441, -0.239478274192, -5.18, 1.0675, 0.00875, 0.0140196924226, -0.228634531535, -0.243677069332, 0.04375, -0.34125, -0.5425
30.0946240425, -0.508467243725, 0.531697027784, -0.174937911886, -4.48, 4.0775, 0.95375, 0.0288856057761, 0.118307926511, -0.133208833543, 0.35875, 1.1725, 0.7175
30.1448369026, -0.397383467417, 0.230024592505, -0.117579708628, -3.78875, 2.765, 1.1725, 0.107482340679, -0.096633079526, -0.0591166551698, 0.875, 1.39125, 0.98
30.1957080364, -0.351122547747, 0.390785427936, 0.0152773924104, -4.69, 2.275, 0.875, 0.0583448763547, 0.0551644850256, 0.0638282083812, -0.4375, 0.48125, 0.525
30.2459421158, -0.416385292972, 0.253331885143, 0.0677996531693, -5.64375, 2.40625, 1.3125, 0.0536603887192, -0.00260196347698, 0.104995387543, -0.2275, 1.4175, 0.9625
30.2962110043, -0.298081128577, 0.196017694269, 0.22455769716, -4.41875, 1.645, 1.54, 0.162442423376, -0.0591793313747, 0.258427137519, 0.98875, 1.07625, 1.0675
30.3464701176, -0.269583214147, 0.517949332358, 0.4539867347, -4.7425, 4.5675, 1.8725, 0.251100862935, 0.235427241586, 0.50074598139, 0.48125, 2.7475, 1.61875
30.3967330456, -0.317987403459, 0.50308895921, 0.516186755107, -5.8275, 3.15, 1.00625, 0.170926698977, -0.019091434315, 0.534711744926, -1.09375, 1.54875, 0.665
30.4469609261, -0.385389067122, 0.524994351264, 0.509764394473, -5.0925, 2.94, 1.295, 0.136209563554, 0.0755285943844, 0.582356612051, -0.00875, 1.1725, 1.26
30.4971120358, -0.314665144369, 0.713632924524, 0.573616659523, -5.01375, 5.83625, 1.28625, 0.198702246479, 0.341128161451, 0.677028855761, 0.20125, 3.82375, 1.35625
30.5473349094, -0.292658390245, 0.391585901978, 0.720068294792, -5.11, 1.82875, 1.91625, 0.269219187683, 0.035107429698, 0.74433703585, 0.06125, 0.4725, 1.21625
30.5975129604, -0.371853296098, 0.691234580602, 0.702837818782, -5.7225, 5.03125, 1.505, 0.181927542023, 0.308824518055, 0.750045499039, -0.67375, 2.21375, 1.12875
30.6476778984, -0.44606366984, 0.376662510288, 0.664731133213, -5.8625, 3.56125, 1.295, 0.088908809039, 0.125235359625, 0.678019354221, -0.77875, 2.47625, 0.7875
30.6978359222, -0.523976665313, 0.54672822, 0.623451996112, -5.34625, 3.99, 1.26, 0.0575010217894, 0.247164077167, 0.739642859227, -0.18375, 1.91625, 1.39125
30.7484509945, -0.548458598904, 0.3219123582, 0.655203616851, -5.1975, 3.0975, 1.81125, 0.0351983276494, 0.0617279025049, 0.748693215974, -0.4025, 1.98625, 1.61
30.7986319065, -0.546157568601, 0.440175359128, 0.752796436684, -5.64375, 3.815, 1.70625, -0.0267951691436, 0.163180890926, 0.782659104445, -0.67375, 2.1875, 1.07625
30.8488070965, -0.55521636751, 0.392837836804, 0.647760352343, -5.5125, 3.43, 1.05875, 0.00965782169433, 0.0773213694851, 0.69486023714, -0.21875, 1.68, 0.65625
30.8990199566, -0.614187757683, 0.428348647811, 0.577243385398, -5.9325, 3.605, 1.33875, -0.0606046644276, 0.0984553092829, 0.592806792084, -1.0675, 1.61875, 0.67375
30.9492111206, -0.689624125351, 0.484324914254, 0.489104677955, -5.8275, 5.18, 0.93625, -0.0698693003677, 0.201251420467, 0.520302901429, -0.44625, 3.40375, 0.56875
30.9994390011, -0.746192237381, 0.123436612491, 0.439525310229, -5.59125, 2.4325, 0.805, -0.0804382199681, -0.100663964479, 0.494607565142, -0.56, 1.63625, 1.11125
31.049751997, -0.717078212278, 0.601783656118, 0.515410501286, -5.4775, 6.15125, 1.23375, -0.0564074581741, 0.377174688772, 0.591339627765, -0.595, 4.375, 1.07625
31.0999040604, -0.654600016751, 0.0816727853101, 0.443722255437, -5.3375, 2.38, 0.63, -0.00582203700894, -0.0887646518854, 0.551267088641, 0.06125, 1.995, 0.945
31.1500680447, -0.685763513568, 0.535667456101, 0.463422526904, -5.985, 4.025, 0.8925, -0.0436558499772, 0.255475631973, 0.572396341799, -0.63875, 1.47875, 0.42
31.200248003, -0.665870351391, 0.188926575498, 0.347215522113, -4.94375, 3.64, 0.455, -0.0426298646334, 0.00240798570818, 0.469784933171, 0.105, 2.415, 0.6825
31.2504200935, -0.736050736164, 0.256831223538, 0.39535186562, -5.36375, 2.7825, 1.47875, -0.120815671318, 0.0279479215813, 0.482883716282, -0.4725, 1.155, 1.25125
31.3006379604, -0.678676096293, 0.362283291066, 0.416980011153, -4.7425, 4.47125, 1.6625, -0.0609381937674, 0.184987816481, 0.533193310188, 0.09625, 2.8525, 1.56625
31.3508899212, -0.648899874198, 0.358892019187, 0.43914017813, -4.71625, 2.9575, 1.4175, -0.0527874432564, 0.0986261182145, 0.487467173127, 0.105, 0.945, 0.7175
31.4010670185, -0.74531800829, 0.437357281987, 0.242346189857, -5.11, 4.27875, 0.46375, -0.161094296134, 0.168353440178, 0.30490156921, -0.035, 2.275, 0.16625
31.4512600899, -0.702020086715, 0.37699689841, 0.215432913784, -4.90875, 3.84125, 1.225, -0.0812263798685, 0.153466286544, 0.32375277106, 0.07, 2.58125, 1.33875
31.5014610291, -0.560077643215, 0.517869488941, 0.327019844149, -4.2, 3.99, 1.4875, 0.00729621907587, 0.242045672891, 0.464416270103, 0.7175, 2.12625, 1.67125
31.5517420769, -0.495975391004, 0.436436786042, 0.31175607376, -5.0575, 3.42125, 1.085, 0.0727574374515, 0.206944495042, 0.374297178783, -0.14, 1.88125, 0.63875
31.6019499302, -0.613540066713, 0.514938796694, 0.215917419746, -5.31125, 3.45625, 0.6125, -0.0236689756643, 0.254812540984, 0.219488214814, -0.4375, 1.32125, 0.175
31.6521389484, -0.614566958634, 0.53771913279, 0.172436798995, -5.03125, 4.97875, 1.3825, -0.0410881832593, 0.336498342377, 0.2157874086, -0.16625, 3.4825, 0.805
31.7023150921, -0.546761736494, 0.46485249756, 0.317181307186, -5.01375, 2.84375, 1.70625, 0.00512857155998, 0.199626157325, 0.360070300966, -0.30625, 0.58625, 1.5575
31.752532959, -0.60593950656, 0.490793023023, 0.39863685882, -5.71375, 5.11875, 1.5925, -0.0742483570364, 0.236634687434, 0.409214443782, -0.56875, 2.93125, 1.085
31.8027100563, -0.750032400282, 0.386040613784, 0.25671802008, -5.74875, 2.19625, 0.79625, -0.172581169199, 0.0327240968213, 0.315496199464, -0.8225, 1.19875, 0.25375
31.8529450893, -0.694026244229, 0.432817897165, 0.262686596265, -5.06625, 3.89375, 1.4, -0.159628922346, 0.222965866583, 0.366032229409, -0.2275, 2.7125, 1.60125
31.9031100273, -0.582423757825, 0.380844996704, 0.462383642975, -4.82125, 2.86125, 1.82875, -0.0171269271006, 0.109414851932, 0.559031105821, 0.37625, 1.47, 1.72375
31.9533519745, -0.491150743838, 0.67404694733, 0.580563250809, -5.52125, 5.6, 1.72375, 0.0379246890485, 0.420288530065, 0.729185195715, -0.46375, 3.40375, 1.68875
32.0036649704, -0.855902642258, 0.613625224604, 0.34864610984, -7.20125, 3.24625, -0.11375, -0.305183901684, 0.397857838417, 0.466379007676, -1.96, 2.17, -0.315
32.0538630486, -1.00824364023, 0.842823931929, 0.23634834897, -6.25625, 4.8825, 0.77, -0.467701460364, 0.544814849118, 0.380524496218, -1.6275, 2.17875, 0.7875
32.1040229797, -1.01928984859, 0.331274884862, 0.327212162666, -5.41625, 2.1, 2.1, -0.486990682895, 0.163262527786, 0.487557341936, -0.70875, 1.65375, 1.75
32.1542069912, -1.08742354962, 0.499203141065, 0.748374416584, -5.46, 2.23125, 2.58125, -0.48690345783, 0.128393382756, 0.899879802272, -0.6475, -0.46375, 2.56375
32.2043790817, -1.05201307519, 0.403992044262, 0.968228277433, -5.34625, 5.78375, 2.52, -0.479881800842, 0.174211140032, 1.07991013984, -0.41125, 4.4275, 2.45875
32.2545650005, -0.812457531814, 0.233372700267, 1.24927516425, -4.31375, 2.8, 3.3425, -0.206411082814, -0.0688475789166, 1.33331499194, 0.77, 1.6625, 2.91375
32.3047449589, -0.73015310077, 0.384406887217, 1.41272038304, -4.5675, 3.70125, 3.08875, -0.127470477079, -0.0385790389224, 1.47815514347, 0.84875, 1.25125, 2.68625
32.35491395, -0.606600360461, 0.384627620781, 1.59511490924, -4.66375, 4.2175, 2.86125, -0.0351307277909, -0.0289516193745, 1.62432684959, 0.42875, 1.77625, 2.5025
32.4051020145, -0.604533791974, 0.377073372832, 1.60027557648, -5.29375, 4.4975, 2.2575, -0.000983389510651, 0.0103616883067, 1.64037474817, -0.14, 2.59875, 2.03
32.45531106, -0.558234871499, 0.193066931994, 1.48423071695, -4.76875, 2.065, 1.575, -0.0190865455036, -0.0634070324716, 1.52081104602, -0.30625, 1.645, 1.21625
32.5054969788, -0.554544471322, 0.404618293424, 1.39555219266, -4.85625, 4.62, 2.30125, -0.0109375916721, 0.136917523328, 1.45629050255, -0.44625, 2.5725, 2.21375
32.5557119846, -0.464281021771, 0.262715817673, 1.51449227605, -4.62, 3.0975, 3.22875, 0.121950550746, -0.0483968061041, 1.54766530706, 0.5075, 1.16375, 2.82625
32.6058630943, -0.242854614871, 0.547477331084, 1.72913036924, -3.89375, 5.1975, 2.6775, 0.268103451494, 0.27539122835, 1.74845600885, 0.875, 3.71, 2.40625
32.65604496, -0.295549738046, 0.533831638178, 1.58807809909, -4.725, 3.8325, 1.60125, 0.16833629571, 0.239816894964, 1.64493186717, -0.28875, 2.31, 1.8025
32.706209898, -0.305682787817, 0.407191126924, 1.35185076026, -4.38375, 2.82625, 0.665, 0.207312399525, 0.14773918492, 1.45021481241, 0.90125, 1.26, 1.11125
32.7564139366, -0.279591502319, 0.610992331528, 1.21544095423, -4.89125, 2.9225, 1.855, 0.257619739254, 0.290668115807, 1.25540209824, 0.455, 0.8225, 1.39125
32.8083279133, -0.358819116878, 0.401091288537, 1.17470217293, -5.4775, 3.36875, 1.715, 0.168331988795, 0.176328673804, 1.23033319958, -0.46375, 2.28375, 1.46125
32.8585000038, -0.606307886204, 0.227408049344, 1.09290588406, -5.985, 0.76125, 1.7675, -0.0893144801681, -0.0751088967971, 1.13159590249, -1.4875, -1.1025, 0.945
32.9086630344, -0.694684387825, 0.308350519968, 0.993111266091, -5.355, 5.24125, 1.51375, -0.166409728936, 0.0802492935943, 1.04631268102, -0.4025, 3.71875, 1.2775
32.9588999748, -0.664446168725, 0.337941279057, 0.88467236298, -5.36375, 2.8175, 1.9075, -0.208198692394, -0.00494076496972, 0.897668694462, -1.085, 0.74375, 1.33875
33.0091080666, -0.649638896667, 0.328319936036, 0.943092114014, -5.27625, 3.955, 2.275, -0.16374344084, -0.0251395196255, 0.977669142515, -0.1925, 1.82875, 1.86375
33.059292078, -0.64356050567, 0.48597148337, 0.873172151116, -5.11, 3.5175, 1.19875, -0.162154968372, 0.123488290193, 0.897240054893, -0.37625, 1.56625, 0.4725
33.1094620228, -0.680963108634, 0.529971961377, 0.732425498164, -5.83625, 4.80375, 0.9625, -0.178339471943, 0.274327963551, 0.749654750017, -0.39375, 3.5, 0.90125
33.1596360207, -0.684280117993, 0.618964788715, 0.606797153513, -5.74875, 3.7625, 0.665, -0.206144972274, 0.253918150476, 0.631502847514, -1.1025, 1.28625, 0.34125
33.2098019123, -0.721042706017, 0.769067830974, 0.388884374911, -6.0725, 7.4025, 0.76125, -0.274991934788, 0.551918831697, 0.395667325838, -1.26875, 5.90625, 0.42
33.2599608898, -0.441557091874, 0.515044943089, 0.434228843678, -3.03625, 1.645, 2.02125, 0.0531415328219, 0.307354253675, 0.499560533928, 1.07625, 1.39125, 1.88125
33.310147047, -0.331811244418, 0.567411403902, 0.524770363379, -3.675, 1.9425, 1.33875, 0.114967141586, 0.238669445476, 0.596839032482, 0.9975, -0.39375, 1.225
33.360296011, -0.421769147181, 0.611767913444, 0.538990594903, -5.0925, 2.10875, 0.95375, 0.177848796216, 0.339228775752, 0.604206154679, -0.2625, 0.18375, 0.42
33.4104590416, -0.465797208295, 0.600458808901, 0.344370893684, -5.04, 3.98125, 0.245, 0.189459522441, 0.574857777523, 0.456556786761, 0.23625, 2.72125, 0.09625
33.460670948, -0.424070738719, 0.57709663521, 0.274447923884, -4.795, 3.15875, 0.4375, 0.213572213178, 0.484222299794, 0.401618497277, 0.28875, 1.39125, 0.385
33.5108599663, -0.380384798362, 0.72897327452, 0.262347818346, -5.06625, 5.1975, 0.7175, 0.220240992674, 0.645920062833, 0.399730982794, 0.02625, 3.40375, 0.63
33.5610749722, -0.273656768006, 0.627495267125, 0.500135809575, -4.34875, 4.08625, 2.205, 0.284343433659, 0.465305725805, 0.596498136457, 0.27125, 1.995, 1.9775
33.6112570763, -0.0911619820848, 0.730596166371, 0.548055005755, -3.605, 5.845, 1.32125, 0.494740681264, 0.608285137902, 0.66870849053, 0.875, 4.24375, 1.74125
33.6614580154, -0.19890208494, 0.255438355285, 0.613548849196, -5.06625, 2.54625, 2.31, 0.331669956641, 0.271742365531, 0.695702739596, -0.76125, 1.16375, 1.645
33.7116060257, -0.208848188801, 0.527755067781, 0.576307067848, -4.025, 4.9875, 1.81125, 0.37627516488, 0.45351131608, 0.663751719073, 0.70875, 2.7125, 1.63625
33.7617969513, -0.417555329636, 0.059512194412, 0.540230852462, -6.02, 4.8125, 1.47875, 0.108572345197, -0.0557865005777, 0.563315503204, -1.1025, 2.94875, 1.23375
33.811964035, -0.761419817005, 0.0451298774737, 0.373769490494, -6.92125, 3.07125, 0.41125, -0.21988390039, -0.0859245654679, 0.363405557595, -1.77625, 1.8375, 0.1225
33.8621718884, -0.875800051774, 0.0415302007537, 0.2335982873, -6.4925, 3.56125, 0.27125, -0.321083459316, -0.039023898029, 0.231841001652, -1.67125, 3.22, 0.32375
33.9125819206, -0.852146987743, 0.147200516349, 0.490832401442, -5.04, 5.0925, 2.12625, -0.291755102046, -0.237109357404, 0.346736211338, 1.21625, 2.87, 2.16125
33.9629011154, -0.850682288969, -0.00176953528548, 0.639299161298, -5.4775, 2.0475, 2.7475, -0.182949132657, -0.276108579497, 0.595463831184, -1.015, 0.2625, 2.12625
34.0132210255, -0.697047388658, 0.173227508777, 0.730544588586, -4.48875, 4.64625, 1.05, -0.0332334177072, -0.116316904453, 0.897089882933, 0.245, 2.6775, 1.2775
34.0634660721, -0.691445884813, 0.301826782109, 0.562923616755, -4.29625, 6.3, 0.28875, -0.0689215683428, 0.0096833073929, 0.668150305176, 0.1575, 4.41, 0.41125
34.113656044, -0.602908666699, -0.0798953064915, 0.341400629571, -2.98375, 2.28375, 0.2975, 0.0835585296423, -0.237469021012, 0.387421747192, 2.4675, 2.24875, 0.49
34.1639130116, -0.630768520026, 0.147722301742, 0.419304509953, -4.2, 3.36, 1.46125, 0.16086740901, -0.32084990702, 0.492356615226, 1.9425, -0.245, 2.14375
34.2140750885, -0.380945251099, -0.38368544203, 0.672359737756, -3.36875, 0.49, 1.96875, 0.170508841168, -0.643325832217, 0.6481497225, 0.35875, 0.63, 1.14625
34.2642669678, -0.48484065339, -0.206847708044, 0.429781387582, -4.3575, 2.82625, 0.1925, 0.116497161346, -0.464356424096, 0.355121275225, 0.46375, 1.3475, -0.09625
34.314426899, -0.779608429246, -0.411509143516, 0.00640542394139, -5.18, 1.11125, -1.07625, -0.00118979930935, -0.595453703518, -0.019344267068, 1.02375, 0.4375, -0.97125
34.3646149635, -0.83766454492, -0.184333915623, -0.322868695947, -4.45375, 1.77625, -0.04375, -0.0391296136965, -0.378519499864, -0.297095220693, 1.6275, 0.13125, 0.02625
34.414853096, -0.978945781385, 0.0265520283452, -0.426928643717, -7.245, 5.0575, -0.2975, -0.105109987094, -0.16341329489, -0.394514628761, -0.77875, 2.82625, -0.46375
34.4650380611, -0.72087522463, 0.215363928664, -0.51972548127, -4.97875, 4.55875, -0.46375, 0.122622569408, -0.0158132919749, -0.440254414367, 1.39125, 2.205, -0.4375
34.5152330399, -0.76202143195, 0.171544782218, -0.663470139828, -6.3525, 4.34875, -0.6825, 0.0565342812208, 0.0333412335003, -0.640148575637, -0.945, 3.2025, -1.46125
34.5654280186, -0.659844873892, 0.362022396237, -0.875529231935, -4.6725, 5.67, -0.65625, 0.10928999101, 0.306768259222, -0.802327811639, 0.86625, 4.40125, -0.58625
34.6155979633, -0.643899347852, 0.0155881409517, -1.01388367787, -4.99625, 1.05, -1.07625, 0.080034892718, -0.000680210030409, -0.995815527428, 0.4375, 0.28875, -1.32125
34.6658129692, -0.71944597176, 0.140276394171, -1.06872577907, -5.495, 4.48875, -1.1025, 0.0272007631016, 0.163111529875, -1.03686557722, -0.11375, 3.3775, -1.25125
34.7159810066, -0.611009863413, -0.0422110086495, -1.21224309294, -4.3575, 4.0425, -0.51625, 0.0795321063011, 0.0207895552791, -1.13463700579, 0.6825, 2.9225, -0.21875
34.7661731243, -0.563480489365, -0.0348159170061, -1.24540940528, -4.76875, 2.765, -0.5775, 0.0957435061039, -0.00666046022389, -1.12752347469, 0.0875, 1.435, -0.56875
34.8163850307, -0.458119776747, 0.0912904465026, -1.23356045645, -5.32875, 5.705, -0.13125, 0.10555976595, 0.189643274497, -1.12421661305, -0.65625, 4.40125, -0.175
34.8666501045, -0.318189519165, -0.0802422383329, -1.22408896973, -3.33375, 2.05625, -0.2625, 0.219025910419, -0.0916139476576, -1.14962045657, 0.2275, 1.155, -0.23625
34.9168350697, -0.413755159471, 0.0821584082553, -1.13712410893, -5.90625, 4.17375, 0.51625, 0.155978888696, 0.0281021821576, -1.06649281284, -0.8925, 2.28375, 0.18375
34.9670209885, -0.433716679172, -0.0973516893132, -1.24843802823, -5.4075, 1.79375, -0.35, -0.0337846001565, -0.139862232452, -1.1952641784, -2.205, 0.51625, -0.81375
35.0172710419, -0.343668209116, 0.0760993684907, -1.30685332258, -3.5875, 2.63375, -0.8925, 0.0967437764859, -0.154412067458, -1.19895708605, 1.715, 1.575, -1.04125
35.0674951077, -0.389021249384, 0.0940904884774, -1.21345619129, -4.80375, 3.63125, -0.35, 0.151334958954, -0.120923774641, -1.1590602397, 1.1025, 1.995, -0.95375
35.1176760197, -0.432220240801, -0.0256117838999, -1.17226531345, -5.10125, 3.43875, -0.48125, 0.152560935077, -0.162655931713, -1.18608316474, -0.32375, 2.75625, -0.77875
35.167853117, -0.425135895049, 0.058254455041, -1.2142524039, -4.55, 2.2225, -0.8575, 0.0540968574125, -0.0962763046876, -1.28058236344, -0.385, 0.7175, -1.39125
35.2180519104, -0.47268507499, 0.248248608583, -1.15043694716, -5.31125, 4.585, -0.21, 0.0607034545041, 0.095128693203, -1.18422671439, -0.0175, 3.22, -0.32375
35.2682468891, -0.393889919667, 0.295203235657, -0.930236784476, -4.8475, 4.83875, 0.77875, 0.0922655683335, 0.187320067345, -0.908714524789, 0.41125, 3.31625, 0.72625
35.3184421062, -0.315775834931, 0.589802120882, -0.781959295426, -4.6725, 5.845, 0.875, 0.15147011035, 0.446641754549, -0.756751265079, 0.06125, 4.29625, 0.805
35.3687310219, -0.275865926294, 0.429514717915, -0.637354529295, -5.27625, 1.86375, 0.6475, 0.120675789384, 0.225492321185, -0.639961024714, -0.72625, 0.4725, 0.175
35.4189190865, -0.510625010268, 0.58062872936, -0.607745951856, -4.9525, 5.5825, -0.0525, 0.0616804004607, 0.436941402144, -0.605009837017, 0.525, 4.4975, -0.20125
35.4693789482, -0.620856258317, 0.822046770781, -0.523279221003, -5.88, 3.66625, 0.07, -0.0123413756269, 0.509447535737, -0.460525467983, -0.2975, 1.225, 0.1575
35.5195760727, -0.636297962313, 0.7729320959, -0.0978738021115, -5.1275, 5.67875, 1.96, -0.041939112832, 0.504006003552, -0.0133563161599, -0.06125, 3.395, 2.31875
35.5698239803, -0.685638849474, 0.618799997679, 0.0927172202897, -5.64375, 3.43875, 1.3125, -0.102398181394, 0.321744862877, 0.18321388391, -0.35875, 1.67125, 1.33
35.6200530529, -0.704865721266, 0.871882698308, 0.426297603591, -5.6, 4.41875, 2.5725, -0.0785405242362, 0.541812005037, 0.500353421371, -0.385, 2.03, 2.17
35.6702950001, -0.660766234226, 0.661149985629, 0.631571058909, -5.08375, 3.75375, 2.73875, -0.0709703246313, 0.35936772408, 0.72636877131, -0.55125, 2.135, 2.38
35.7204859257, -0.539698584751, 0.930720839524, 0.802917051945, -4.5675, 2.61625, 1.645, 0.0940216333438, 0.627321570855, 0.919737084285, 0.42875, 1.60125, 1.26
35.7707109451, -0.556643353648, 0.730946380014, 0.929982812075, -4.66375, 2.58125, 1.68, -0.0256074769915, 0.495130472392, 0.996069538271, -0.30625, 1.855, 0.97125
35.8208959103, -0.690768616455, 0.791729067812, 0.890543577781, -6.44875, 1.65375, 0.39375, -0.149107056363, 0.472405682638, 0.973636326, -2.0125, -0.735, 0.21
35.8714230061, -0.795554071396, 0.880846740435, 0.604013018202, -6.475, 8.82875, 0.69125, -0.504792544089, 0.430671242643, 0.700776381654, -3.56125, 4.865, 0.83125
35.9216089249, -0.990260168047, 0.649407273777, 0.607022240269, -8.715, 6.6325, 1.7675, -0.451502264641, 0.167601835887, 0.674945232226, -2.82625, 3.5875, 1.295
35.9717829227, -0.838035736118, 0.311894891759, 0.664383014618, -7.88375, 2.59875, 2.6425, -0.268769334359, -0.242730012932, 0.701100638103, -2.24875, 1.84625, 1.61875
36.0220279694, -0.725496446256, 0.444772362325, 0.657907741841, -5.88875, 3.535, 2.31, -0.172030660831, -0.100761310475, 0.713799016863, -2.33625, 1.715, 1.95125
36.0725650787, -0.621353159321, 0.534561552135, 0.628417743802, -6.74625, 5.64375, 1.04125, 0.0145298982544, 0.0701625046639, 0.680501233293, -0.35, 2.66, 0.58625
36.1227319241, -0.49057105905, 0.285544857229, 0.67156337248, -5.53875, 4.06875, 2.17875, 0.168566717586, -0.109818371222, 0.718375998968, -0.28, 3.0275, 1.2425
36.1728858948, -0.281392552047, 0.60797470092, 0.757355198538, -3.5, 6.92125, 1.3475, 0.36064163712, 0.141951157379, 0.815192853247, 1.39125, 4.03375, 1.61
36.2230288982, -0.255592670442, 0.331676056971, 0.888278689734, -5.13625, 2.9575, 2.63375, 0.413374253461, -0.180512606271, 0.919442340017, 0.25375, 0.37625, 2.28375
36.2732679844, -0.147667563058, 0.327882606146, 0.879163238684, -3.71, 4.1825, 1.89, 0.497143145303, -0.0739027110793, 0.923205795414, 0.665, 2.59, 2.05625
36.323513031, -0.232623226077, 0.556509910979, 0.891117223334, -4.64625, -1.14625, 0.98, 0.430333447696, 0.00798880402578, 0.935266694285, -0.48125, -2.03, 0.07
36.3740200996, -0.36473858181, 0.514946975103, 0.642554955811, -5.565, 6.55375, 1.09375, 0.29645083337, 0.120391338135, 0.675552420134, -0.525, 3.0625, 0.665
36.4242329597, -0.512925751266, 0.0205445498337, 0.398552014207, -5.17125, 1.68, 0.74375, 0.19199767503, -0.324370516111, 0.382217460309, 0.41125, 0.105, 0.0
36.4744439125, -0.521820372673, 0.244216976829, 0.400952418357, -4.5325, 1.40875, 1.86375, 0.176017805097, -0.172342356245, 0.421365778565, 0.18375, -0.91875, 1.2075
36.524627924, -0.534812001865, 0.103215751231, 0.451966458869, -5.425, 3.92, 1.8725, 0.130059422128, -0.156447308558, 0.455976280638, -0.28, 3.045, 1.11125
36.5748960972, -0.60125669936, -0.0601807173524, 0.311957798515, -5.17125, -0.77, -0.30625, -0.0205626812685, -0.364777587939, 0.276484708585, -0.91, -1.32125, -0.41125
36.6251010895, -0.667842926481, 0.532591118945, 0.311105816798, -5.6, 7.9625, 0.90125, -0.00519577182746, 0.362130153769, 0.277897613954, -0.00875, 6.545, 0.39375
36.6752910614, -0.394654993405, -0.123801074289, 0.192872890445, -5.53875, -3.85875, 0.84875, 0.171835032338, -0.0534971179021, 0.220384110572, -0.70875, -5.8975, -0.42
36.7254989147, -0.399170544658, 0.513871129826, 0.326909541261, -3.815, 1.5575, 0.7875, 0.231758876194, 0.158304834499, 0.320918629564, 2.1175, -1.40875, 0.105
36.7756490707, -0.281051577056, 0.705518303643, 0.649900055579, -4.34875, 8.96875, 1.26875, 0.274942470745, 0.32699172435, 0.513406430952, 0.5075, 7.1575, 1.6975
36.8258719444, -0.330601777415, 0.404507325951, 0.529364045019, -4.585, -1.11125, 0.07875, 0.247288401304, -0.178636703277, 0.329716709071, 0.595, -3.71, -0.62125
