TIME, IMU1_gyr_x, IMU1_gyr_y, IMU1_gyr_z, IMU1_gyr_raw_x, IMU1_gyr_raw_y, IMU1_gyr_raw_z,IMU2_gyr_x, IMU2_gyr_y,IMU2_gyr_z, IMU2_gyr_raw_x, IMU2_gyr_raw_y, IMU2_gyr_raw_z1.90734863281e-06, 0.0, 0.0, 0.0, 0.0, 0.0, 0.0, 0.0, 0.0, 0.0, 0.0, 0.0, 0.0
0.0501418113708, 0.0, 0.0, 0.0, -4.0075, 3.5525, 1.33875, 0.0, 0.0, 0.0, -0.3325, 1.35625, 0.7
0.1005859375, 0.0, 0.0, 0.0, -4.01625, 3.43875, 1.37375, 0.0, 0.0, 0.0, -0.21875, 1.04125, 0.77875
0.150954008102, 0.0, -0.0, 0.0, -4.1475, 3.36, 1.26, 0.0, 0.0, 0.0, -0.60375, 1.18125, 0.8575
0.201258897781, 0.0, -0.0, 0.0, -4.27875, 3.3075, 1.35625, 0.0, 0.0, 0.0, -0.7, 1.02375, 0.6475
0.251456022263, 0.0, -0.0, 0.0, -4.27875, 3.2025, 1.12, 0.0, 0.0, 0.0, -0.77, 0.72625, 0.98
0.301610946655, 0.0, -0.0, 0.0, -4.29625, 3.07125, 0.945, 0.0, 0.0, 0.0, -0.67375, 1.02375, 0.49875
0.351809978485, 0.0, -0.0, 0.0, -4.19125, 3.0275, 1.05, 0.0, 0.0, 0.0, -0.9275, 0.7875, 0.63
0.402104854584, 0.0, -0.0, 0.0, -4.26125, 2.9575, 1.18125, 0.0, 0.0, 0.0, -0.60375, 1.09375, 0.8575
0.452320814133, 0.0, -0.0, 0.0, -4.24375, 3.15, 1.07625, 0.0, 0.0, 0.0, -0.49875, 0.86625, 0.8225
0.502547979355, 0.0, -0.0, 0.0, -4.13875, 3.10625, 1.225, 0.0, 0.0, 0.0, -0.5425, 0.8925, 0.6125
0.55276799202, 0.0, -0.0, 0.0, -4.4275, 3.325, 1.04125, 0.0, 0.0, 0.0, -0.8225, 1.2075, 0.70875
0.602995872498, 0.0, 0.0, 0.0, -4.03375, 3.6575, 1.2425, 0.0, 0.0, 0.0, -0.7875, 1.3825, 0.81375
0.653228998184, 0.0, 0.0, 0.0, -3.92875, 3.6575, 1.1025, 0.0, 0.0, 0.0, -0.6475, 1.72375, 0.665
0.703425884247, 0.0, 0.0, 0.0, -3.9725, 4.03375, 1.015, 0.0, 0.0, 0.0, -0.44625, 1.68875, 0.77
0.753561019897, 0.0, 0.0, 0.0, -3.78, 4.08625, 1.19, 0.0, 0.0, 0.0, -0.3325, 1.79375, 0.69125
0.803773880005, 0.0, 0.0, 0.0, -4.13875, 4.41, 1.11125, 0.0, 0.0, 0.0, -0.49, 1.88125, 0.69125
0.854029893875, 0.0, 0.0, 0.0, -3.70125, 4.34875, 1.2425, 0.0, 0.0, 0.0, -0.4725, 2.3975, 0.42
0.904251813889, 0.0, 0.0, 0.0, -3.9725, 4.34875, 1.19, 0.0, 0.0, 0.0, -0.3675, 2.24875, 0.8925
0.954456806183, 0.0, 0.0, 0.0, -3.92875, 4.68125, 1.16375, 0.0, 0.0, 0.0, -0.385, 2.58125, 0.805
1.00466990471, 0.0, 0.0, 0.0, -4.01625, 4.655, 1.2425, 0.0, 0.0, 0.0, -0.315, 2.26625, 0.7525
1.05483198166, 0.0, 0.0, 0.0, -4.1125, 4.68125, 1.05875, 0.0, 0.0, 0.0, -0.28875, 1.9775, 0.7875
1.10502481461, 0.0, 0.0, 0.0, -4.13, 4.41875, 1.19875, 0.0, 0.0, 0.0, -0.455, 2.07375, 0.77875
1.15533185005, 0.0, 0.0, 0.0, -3.99, 4.08625, 1.19, 0.0, 0.0, 0.0, -0.3675, 1.91625, 0.805
1.2056658268, 0.0, 0.0, 0.0, -3.955, 4.10375, 1.05, 0.0, 0.0, 0.0, 0.07, 1.8725, 0.8225
1.2559800148, 0.0, 0.0, 0.0, -3.66625, 4.03375, 1.1725, 0.0, 0.0, 0.0, -0.0875, 1.91625, 0.7
1.30619287491, 0.0, 0.0, 0.0, -3.73625, 4.1475, 1.07625, 0.0, 0.0, 0.0, -0.20125, 1.9775, 0.63875
1.35640001297, 0.0, 0.0, 0.0, -3.7625, 3.99875, 1.16375, 0.0, 0.0, 0.0, -0.44625, 1.79375, 0.77875
1.40661382675, 0.0, 0.0, 0.0, -3.63125, 4.17375, 1.2425, 0.0, 0.0, 0.0, -0.25375, 2.00375, 0.805
1.45681095123, 0.0, 0.0, 0.0, -3.64, 4.4275, 0.9625, 0.0, 0.0, 0.0, 0.02625, 2.07375, 0.93625
1.50701284409, 0.0, 0.0, 0.0, -3.57875, 4.6375, 1.4, 0.0, 0.0, 0.0, -0.0175, 2.16125, 0.525
1.55729389191, 0.0, 0.0, 0.0, -3.745, 4.82125, 1.23375, 0.0, 0.0, 0.0, -0.27125, 2.58125, 1.04125
1.60754585266, 0.0, 0.0, 0.0, -3.885, 5.32, 1.26875, 0.0, 0.0, 0.0, -0.2625, 2.66, 0.84875
1.65784692764, 0.0, 0.0, 0.0, -3.66625, 4.935, 1.35625, 0.0, 0.0, 0.0, -0.14875, 3.00125, 0.91875
1.70808291435, 0.0, 0.0, 0.0, -3.73625, 5.50375, 1.2425, 0.0, 0.0, 0.0, -0.04375, 3.21125, 1.02375
1.75825691223, 0.0, 0.0, 0.0, -3.45625, 5.31125, 1.11125, 0.0, 0.0, 0.0, 0.23625, 2.94875, 1.1375
1.80846595764, 0.0, 0.0, 0.0, -3.78, 5.2675, 1.33, 0.0, 0.0, 0.0, -0.21, 3.14125, 0.74375
1.85870790482, 0.0, 0.0, 0.0, -3.57, 5.04875, 1.1375, 0.0, 0.0, 0.0, 0.0, 2.975, 0.97125
1.90903282166, 0.0, 0.0, 0.0, -3.43, 4.83, 1.09375, 0.0, 0.0, 0.0, 0.4725, 2.7125, 0.67375
1.95935702324, 0.0, 0.0, 0.0, -3.15875, 4.87375, 1.25125, 0.0, 0.0, 0.0, 0.0175, 0.06125, 1.04125
2.00951480865, 0.0, 0.0, 0.0, -3.33375, 4.41875, 1.09375, 0.0, 0.0, 0.0, -0.1225, 2.415, 0.93625
2.05973982811, 0.0, 0.0, 0.0, -3.71875, 4.27875, 1.30375, 0.0, 0.0, 0.0, 0.035, 1.82, 1.05
2.11000585556, 0.0, 0.0, 0.0, -3.71875, 4.12125, 1.14625, 0.0, 0.0, 0.0, -0.0175, 1.84625, 0.9975
2.16021299362, 0.0, 0.0, 0.0, -3.92875, 4.2, 1.07625, 0.0, 0.0, 0.0, -0.35, 1.56625, 0.70875
2.21050786972, 0.0, 0.0, 0.0, -3.5525, 3.8675, 0.98, 0.0, 0.0, 0.0, -0.2275, 1.68875, 0.945
2.26069402695, 0.0, 0.0, 0.0, -3.77125, 3.605, 1.11125, 0.0, 0.0, 0.0, -0.42, 1.63625, 0.76125
2.31095480919, 0.0, 0.0, 0.0, -3.7975, 3.78, 1.225, 0.0, 0.0, 0.0, -0.245, 1.70625, 0.7875
2.36121296883, 0.0, 0.0, 0.0, -3.89375, 3.85875, 1.155, 0.0, 0.0, 0.0, -0.28875, 1.645, 0.62125
2.4114408493, 0.0, 0.0, 0.0, -4.01625, 3.92875, 0.945, 0.0, 0.0, 0.0, -0.16625, 1.8375, 0.77875
2.4616458416, 0.0, 0.0, 0.0, -3.73625, 4.13875, 1.12, 0.0, 0.0, 0.0, -0.1925, 1.8375, 0.945
2.51192092896, 0.0, 0.0, 0.0, -3.64, 4.0075, 1.02375, 0.0, 0.0, 0.0, -0.04375, 1.7325, 0.9975
2.56213188171, 0.0, 0.0, 0.0, -3.78875, 4.27, 1.39125, 0.0, 0.0, 0.0, -0.35875, 2.21375, 0.7525
2.61239385605, 0.0, 0.0, 0.0, -3.71875, 4.235, 0.91875, 0.0, 0.0, 0.0, -0.13125, 2.17, 0.88375
2.66311192513, 0.0, 0.0, 0.0, -4.10375, 4.41, 1.14625, 0.0, 0.0, 0.0, -0.07875, 1.93375, 1.0325
2.71337485313, 0.0, 0.0, 0.0, -3.96375, 4.4975, 1.4, 0.0, 0.0, 0.0, -0.32375, 2.1175, 1.2075
2.76371979713, 0.0, 0.0, 0.0, -4.05125, 4.17375, 1.4175, 0.0, 0.0, 0.0, -0.34125, 2.1, 0.93625
2.81414294243, 0.0, 0.0, 0.0, -4.05125, 4.50625, 1.40875, 0.0, 0.0, 0.0, -0.56, 2.03875, 0.9975
2.8643488884, 0.0, 0.0, 0.0, -4.06875, 4.13875, 1.23375, 0.0, 0.0, 0.0, -0.44625, 2.135, 0.95375
2.91456198692, 0.0, 0.0, 0.0, -4.34, 4.13875, 1.47, 0.0, 0.0, 0.0, -0.665, 2.065, 0.95375
2.96499896049, 0.0, 0.0, 0.0, -4.08625, 3.99, 1.225, 0.0, 0.0, 0.0, -0.3325, 1.96875, 0.93625
3.01530194283, 0.0, 0.0, 0.0, -4.0775, 4.095, 1.4175, 0.0, 0.0, 0.0, -0.76125, 1.93375, 1.18125
3.06570291519, 0.0, 0.0, 0.0, -4.15625, 3.77125, 0.95375, 0.0, 0.0, 0.0, -0.72625, 1.575, 0.91
3.11590695381, 0.0, 0.0, 0.0, -4.13875, 3.66625, 1.11125, 0.0, 0.0, 0.0, -0.9275, 1.39125, 0.4725
3.16614198685, 0.0, 0.0, 0.0, -4.38375, 3.745, 1.11125, 0.0, 0.0, 0.0, -0.86625, 1.4525, 0.8925
3.21647500992, 0.0, 0.0, 0.0, -4.19125, 3.6925, 1.1725, 0.0, 0.0, 0.0, -0.77875, 1.28625, 0.77875
3.26665592194, 0.0, -0.0, 0.0, -4.2175, 3.3425, 1.18125, 0.0, 0.0, 0.0, -0.90125, 1.44375, 0.88375
3.31688499451, 0.0, 0.0, 0.0, -4.515, 3.4825, 1.2775, 0.0, 0.0, 0.0, -0.7525, 1.5575, 0.90125
3.36706995964, 0.0, 0.0, 0.0, -4.3925, 3.7275, 1.23375, 0.0, 0.0, 0.0, -0.46375, 1.49625, 0.5775
3.41734194756, 0.0, 0.0, 0.0, -4.26125, 3.64875, 1.11125, 0.0, 0.0, 0.0, -0.6825, 1.2425, 0.88375
3.46771383286, 0.0, 0.0, 0.0, -4.025, 3.56125, 1.225, 0.0, 0.0, 0.0, -0.60375, 1.70625, 0.91
3.51786184311, 0.0, 0.0, 0.0, -3.99875, 3.52625, 1.00625, 0.0, 0.0, 0.0, -0.53375, 1.53125, 0.83125
3.56800103188, 0.0, 0.0, 0.0, -4.06875, 3.8675, 1.16375, 0.0, 0.0, 0.0, -0.49, 1.54875, 0.9275
3.61815881729, 0.0, 0.0, 0.0, -3.99875, 3.63125, 1.28625, 0.0, 0.0, 0.0, -0.2975, 1.6275, 0.63
3.6683409214, 0.0, 0.0, 0.0, -3.87625, 3.78, 1.30375, 0.0, 0.0, 0.0, -0.32375, 1.79375, 0.8925
3.71857786179, 0.0, 0.0, 0.0, -3.75375, 3.54375, 1.19875, 0.0, 0.0, 0.0, -0.315, 1.49625, 0.7875
3.76883292198, 0.0, 0.0, 0.0, -3.78875, 3.8675, 1.085, 0.0, 0.0, 0.0, 0.0, 1.67125, 0.7
3.81916189194, 0.0, 0.0, 0.0, -3.71875, 3.955, 1.33, 0.0, 0.0, 0.0, 0.04375, 1.77625, 0.79625
3.86976885796, 0.0, 0.0, 0.0, -3.73625, 3.92, 1.00625, 0.0, 0.0, 0.0, 0.0, 1.72375, 1.0675
3.91995000839, 0.0, 0.0, 0.0, -3.57, 3.71, 1.2425, 0.0, 0.0, 0.0, 2.1175, 1.32125, 0.74375
3.97016191483, 0.0, 0.0, 0.0, -3.6925, 3.78875, 1.05, 0.0, 0.0, 0.0, -0.2275, 1.53125, 0.805
4.02033281326, 0.0, -0.0, 0.0, -3.45625, 3.1675, 1.365, 0.0, 0.0, 0.0, 0.07, 1.16375, 0.805
4.07056093216, 0.0, 0.0, 0.0, -3.70125, 3.40375, 1.11125, 0.0, 0.0, 0.0, -0.30625, 1.05875, 0.77875
4.12083792686, 0.0, -0.0, 0.0, -3.5, 2.975, 1.0325, 0.0, 0.0, 0.0, 0.0175, 0.77, 1.07625
4.17111182213, 0.0, -0.0, 0.0, -3.82375, 2.975, 1.14625, 0.0, 0.0, 0.0, -0.41125, 0.7525, 0.7525
4.22140693665, 0.0, -0.0, 0.0, -3.85, 2.44125, 1.16375, 0.0, 0.0, 0.0, -0.41125, 0.49, 0.63
4.2721619606, 0.0, -0.0, 0.0, -4.57625, 2.8, 0.9975, 0.0, 0.0, 0.0, -1.085, 0.7525, 1.05875
4.32331585884, 0.0, -0.0, 0.0, -4.27, 2.86125, 1.07625, 0.0, 0.0, 0.0, -0.8925, 0.6475, 0.5425
4.37358999252, 0.0, -0.0, 0.0, -4.36625, 2.38, 1.19875, 0.0, 0.0, 0.0, -1.00625, 0.5075, 0.69125
4.423817873, 0.0, -0.0, 0.0, -4.2175, 3.08, 0.90125, 0.0, 0.0, 0.0, -0.79625, 0.95375, 0.875
4.47446298599, 0.0, -0.0, 0.0, -3.96375, 3.255, 0.98, 0.0, 0.0, 0.0, -0.4375, 0.88375, 0.70875
4.52467989922, 0.0, -0.0, 0.0, -4.445, 2.975, 1.12, 0.0, 0.0, 0.0, -0.74375, 0.8575, 0.84
4.57491993904, 0.0, 0.0, 0.0, -4.515, 3.45625, 0.81375, 0.0, 0.0, 0.0, -0.3675, 0.875, 0.945
4.62523889542, 0.0, -0.0, 0.0, -4.4625, 3.2725, 0.91, 0.0, 0.0, 0.0, -0.55125, 1.0675, 0.70875
4.67558097839, 0.0, -0.0, 0.0, -4.10375, 3.36, 1.225, 0.0, 0.0, 0.0, -0.63875, 1.11125, 0.7875
4.72577285767, 0.0, -0.0, 0.0, -4.26125, 3.36, 1.23375, 0.0, 0.0, 0.0, -0.28875, 1.2425, 0.35
4.77604699135, 0.0, -0.0, 0.0, -4.235, 3.2725, 1.28625, 0.0, 0.0, 0.0, -0.84875, 1.32125, 0.7175
4.82633781433, 0.0, 0.0, 0.0, -4.20875, 3.49125, 0.9625, 0.0, 0.0, 0.0, -0.56, 1.00625, 0.83125
4.87654495239, 0.0, 0.0, 0.0, -4.17375, 3.43, 1.0675, 0.0, 0.0, 0.0, -0.34125, 1.00625, 0.5075
4.92676782608, 0.0, 0.0, 0.0, -4.31375, 3.40375, 0.97125, 0.0, 0.0, 0.0, -0.49875, 0.98, 0.7
4.97694897652, 0.0, -0.0, 0.0, -4.50625, 3.29, 0.93625, 0.0, 0.0, 0.0, -0.91, 1.54875, 0.4725
5.02724599838, 0.0, -0.0, 0.0, -4.19125, 3.28125, 1.02375, 0.0, 0.0, 0.0, -0.58625, 1.085, 0.4725
5.07770490646, 0.0, -0.0, 0.0, -4.2, 3.05375, 1.015, 0.0, 0.0, 0.0, -0.70875, 1.05, 0.79625
5.12805294991, 0.0, -0.0, 0.0, -4.26125, 3.14125, 0.93625, 0.0, 0.0, 0.0, -0.455, 0.95375, 0.69125
5.17962479591, 0.0, -0.0, 0.0, -3.85, 2.94875, 0.76125, 0.0, 0.0, 0.0, -0.55125, 1.16375, 0.49875
5.22996091843, 0.0, -0.0, 0.0, -3.85875, 3.17625, 0.7875, 0.0, 0.0, 0.0, -0.455, 1.2425, 0.2625
5.28018093109, 0.0, -0.0, 0.0, -4.06, 3.255, 0.90125, 0.0, 0.0, 0.0, -0.77875, 1.18125, 0.48125
5.33044981956, 0.0, -0.0, -0.0, -4.1475, 3.38625, 0.7525, 0.0, 0.0, 0.0, -0.1575, 0.97125, 0.25375
5.38098287582, 0.0, -0.0, -0.0, -4.1125, 3.61375, 0.86625, 0.0, 0.0, 0.0, -0.385, 1.16375, 0.49875
5.43155002594, 0.0, -0.0, 0.0, -3.8325, 3.3775, 1.04125, 0.0, 0.0, 0.0, -0.58625, 1.505, 0.25375
5.48210692406, 0.0, 0.0, -0.0, -3.9725, 3.75375, 1.00625, 0.0, 0.0, 0.0, -0.49875, 1.54875, 0.455
5.53270292282, 0.0, 0.0, 0.0, -3.9725, 3.99875, 1.00625, 0.0, 0.0, 0.0, -0.42, 1.42625, 0.21875
5.58289599419, 0.0, 0.0, 0.0, -3.82375, 3.6575, 0.77875, 0.0, 0.0, 0.0, -0.2625, 1.4525, 0.525
5.63307785988, 0.0, 0.0, 0.0, -3.57, 3.8675, 0.7175, 0.0, 0.0, 0.0, -0.21, 1.75875, 0.7525
5.68331599236, 0.0, 0.0, 0.0, -3.885, 3.7975, 0.83125, 0.0, 0.0, 0.0, -0.315, 1.68, 0.5775
5.73355984688, 0.0, 0.0, 0.0, -3.63125, 3.99, 0.84875, 0.0, 0.0, 0.0, -0.105, 1.68875, 0.1575
5.78373384476, 0.0, 0.0, 0.0, -3.84125, 4.06, 0.95375, 0.0, 0.0, 0.0, -0.13125, 1.93375, 0.56
5.83403801918, 0.0, 0.0, -0.0, -3.71, 4.1125, 0.56, 0.0, 0.0, 0.0, -0.0875, 2.0475, 0.46375
5.88445997238, 0.0, 0.0, 0.0, -3.85875, 4.33125, 0.83125, 0.0, 0.0, 0.0, -0.0875, 1.995, 0.315
5.934705019, 0.0, 0.0, 0.0, -3.5175, 4.31375, 0.81375, 0.0, 0.0, 0.0, 0.0875, 2.10875, 0.5425
5.98502397537, 0.0, 0.0, -0.0, -3.6575, 4.34, 0.7175, 0.0, 0.0, 0.0, -0.0875, 2.10875, 0.37625
6.03537487984, 0.0, 0.0, 0.0, -3.6225, 4.2, 0.8925, 0.0, 0.0, 0.0, -0.14, 2.24875, 0.53375
6.08560180664, 0.0, 0.0, 0.0, -3.82375, 4.03375, 0.76125, 0.0, 0.0, 0.0, -0.0875, 1.89, 0.65625
6.13585996628, 0.0, 0.0, 0.0, -3.7975, 3.885, 0.83125, 0.0, 0.0, 0.0, 0.0525, 1.68875, 0.63875
6.18612480164, 0.0, 0.0, 0.0, -3.52625, 3.91125, 0.56875, 0.0, 0.0, 0.0, -0.06125, 1.89, 0.67375
6.23638701439, 0.0, 0.0, -0.0, -4.05125, 4.4625, 0.72625, 0.0, 0.0, 0.0, -0.49, 1.96875, 0.30625
6.28670096397, 0.0, 0.0, 0.0, -3.815, 4.03375, 0.69125, 0.0, 0.0, 0.0, -0.2625, 1.86375, 0.56875
6.33688402176, 0.0, 0.0, -0.0, -3.82375, 3.98125, 0.6825, 0.0, 0.0, 0.0, -0.06125, 1.75, 0.44625
6.38708591461, 0.0, 0.0, 0.0, -3.8325, 3.885, 0.5425, 0.0, 0.0, 0.0, -0.27125, 1.84625, 0.56
6.43757796288, 0.0, 0.0, 0.0, -3.99875, 4.3575, 0.86625, 0.0, 0.0, 0.0, -0.25375, 2.07375, 0.3675
6.48781180382, 0.0, 0.0, 0.0, -4.27875, 4.4625, 0.91, 0.0, 0.0, 0.0, -0.21, 2.05625, 0.2975
6.53854799271, 0.0, 0.0, 0.0, -3.7625, 4.41, 0.8225, 0.0, 0.0, 0.0, -0.21, 2.07375, 0.1575
6.5888428688, 0.0, 0.0, 0.0, -4.08625, 4.3225, 0.77875, 0.0, 0.0, 0.0, -0.28, 2.345, 0.455
6.63906288147, 0.0, 0.0, -0.0, -3.94625, 4.47125, 0.6475, 0.0, 0.0, 0.0, -0.315, 2.51125, 0.4375
6.68931698799, 0.0, 0.0, 0.0, -3.9025, 4.59375, 1.015, 0.0, 0.0, 0.0, -0.4375, 2.38, 0.7
6.73955202103, 0.0, 0.0, 0.0, -3.885, 4.7075, 0.90125, 0.0, 0.0, 0.0, -0.315, 2.4325, 0.525
6.78984999657, 0.0, 0.0, 0.0, -3.9375, 4.64625, 0.8575, 0.0, 0.0, 0.0, -0.2975, 2.51125, 0.3325
6.8401927948, 0.0, 0.0, 0.0, -3.80625, 4.7425, 0.79625, 0.0, 0.0, 0.0, -0.32375, 2.345, 0.48125
6.89039087296, 0.0, 0.0, 0.0, -3.885, 4.9175, 0.9275, 0.0, 0.0, 0.0, -0.315, 2.79125, 0.35875
6.94071602821, 0.0, 0.0, 0.0, -4.26125, 4.935, 0.6475, 0.0, 0.0, 0.0, -0.35, 2.44125, 0.56
6.9910569191, 0.0, 0.0, 0.0, -3.8675, 4.99625, 0.90125, 0.0, 0.0, 0.0, -0.7525, 2.73875, 0.58625
7.04139590263, 0.0, 0.0, 0.0, -3.92875, 4.75125, 0.8225, 0.0, 0.0, 0.0, -0.16625, 2.7125, 0.77875
7.09160399437, 0.0, 0.0, 0.0, -3.99, 4.6375, 0.9975, 0.0, 0.0, 0.0, -0.42, 2.4675, 0.55125
7.14185786247, 0.0, 0.0, 0.0, -3.92875, 4.725, 0.875, 0.0, 0.0, 0.0, -0.30625, 2.415, 0.90125
7.19213485718, 0.0, 0.0, 0.0, -3.80625, 4.80375, 1.04125, 0.0, 0.0, 0.0, -0.5425, 2.3625, 0.7875
7.24240088463, 0.0, 0.0, 0.0, -4.0075, 4.7425, 0.91, 0.0, 0.0, 0.0, -0.455, 2.52, 0.8575
7.2926428318, 0.0, 0.0, 0.0, -3.8675, 4.6375, 0.98875, 0.0, 0.0, 0.0, -0.18375, 2.3625, 0.525
7.34285593033, 0.0, 0.0, 0.0, -3.78875, 4.83, 1.00625, 0.0, 0.0, 0.0, -0.2625, 2.33625, 0.735
7.39300680161, 0.0, 0.0, 0.0, -4.0775, 4.64625, 0.84875, 0.0, 0.0, 0.0, -0.25375, 2.52, 0.56
7.44317388535, 0.0, 0.0, 0.0, -3.745, 4.62, 1.1725, 0.0, 0.0, 0.0, -0.06125, 2.44125, 0.84
7.49350595474, 0.0, 0.0, 0.0, -3.82375, 4.6025, 1.02375, 0.0, 0.0, 0.0, -0.20125, 2.54625, 0.77
7.54380488396, 0.0, 0.0, 0.0, -4.1125, 4.50625, 0.91, 0.0, 0.0, 0.0, -0.63875, 2.12625, 0.7875
7.59424901009, 0.0, 0.0, 0.0, -3.91125, 4.99625, 1.14625, 0.0, 0.0, 0.0, -0.0525, 2.19625, 0.30625
7.64479398727, 0.0, 0.0, 0.0, -4.0075, 4.43625, 0.875, 0.0, 0.0, 0.0, -0.5075, 2.31, 0.39375
7.69497299194, 0.0, 0.0, 0.0, -4.0775, 4.54125, 0.875, 0.0, 0.0, 0.0, -1.16375, 2.45875, 0.86625
7.74526691437, 0.0, 0.0, 0.0, -3.78, 4.69875, 1.16375, 0.0, 0.0, 0.0, -0.35, 2.52875, 0.53375
7.79547190666, 0.0, 0.0, 0.0, -4.305, 4.8125, 1.09375, 0.0, 0.0, 0.0, -0.6125, 2.5375, 0.6125
7.84567594528, 0.0, 0.0, 0.0, -3.54375, 4.515, 1.07625, 0.0, 0.0, 0.0, -0.07875, 2.5725, 0.63
7.89588284492, 0.0, 0.0, 0.0, -3.92875, 4.64625, 1.18125, 0.0, 0.0, 0.0, -0.23625, 2.695, 0.72625
7.94612693787, 0.0, 0.0, 0.0, -3.605, 4.76, 1.11125, 0.0, 0.0, 0.0, 0.27125, 2.45, 0.70875
7.99634194374, 0.0, 0.0, 0.0, -3.4125, 5.215, 1.16375, 0.0, 0.0, 0.0, 0.42, 2.56375, 0.8225
8.04658198357, 0.0, 0.0, 0.0, -3.50875, 5.005, 1.23375, 0.0, 0.0, 0.0, 0.175, 2.38875, 0.7875
8.09682583809, 0.0, 0.0, 0.0, -3.22875, 4.83875, 1.365, 0.0, 0.0, 0.0, 0.6125, 2.65125, 0.7175
8.14704084396, 0.0, 0.0, 0.0, -3.21125, 4.76875, 1.085, 0.0, 0.0, 0.0, 0.3675, 2.625, 0.8925
8.19731688499, 0.0, 0.0, 0.0, -3.08, 4.54125, 1.19, 0.0, 0.0, 0.0, 0.65625, 2.63375, 0.5425
8.24760293961, 0.0, 0.0, 0.0, -3.35125, 4.92625, 0.91875, 0.0, 0.0, 0.0, 0.30625, 2.52875, 0.65625
8.29785895348, 0.0, 0.0, 0.0, -2.94875, 4.47125, 1.1375, 0.0, 0.0, 0.0, 0.44625, 2.5025, 1.09375
8.34805583954, 0.0, 0.0, 0.0, -3.115, 4.87375, 1.0325, 0.0, 0.0, 0.0, 0.67375, 2.26625, 1.00625
8.39825987816, 0.0, 0.0, 0.0, -3.325, 4.71625, 1.4175, 0.0, 0.0, 0.0, 0.3325, 2.3975, 0.83125
8.44850683212, 0.0, 0.0, 0.0, -3.24625, 4.7425, 1.30375, 0.0, 0.0, 0.0, 0.385, 2.345, 0.93625
8.49873685837, 0.0, 0.0, 0.0, -3.255, 4.585, 1.1725, 0.0, 0.0, 0.0, 0.3675, 2.275, 0.74375
8.54898095131, 0.0, 0.0, 0.0, -3.61375, 4.06875, 1.2775, 0.0, 0.0, 0.0, 0.07, 2.0125, 0.875
8.59930992126, 0.0, 0.0, 0.0, -3.71875, 4.2175, 1.3825, 0.0, 0.0, 0.0, -0.04375, 1.77625, 0.8225
8.64949703217, 0.0, 0.0, 0.0, -3.675, 4.0425, 1.30375, 0.0, 0.0, 0.0, 0.00875, 1.32125, 0.76125
8.69970703125, 0.0, 0.0, 0.0, -3.815, 3.56125, 1.26875, 0.0, 0.0, 0.0, 0.0175, 1.19, 0.875
8.7499268055, 0.0, 0.0, 0.0, -3.96375, 3.77125, 1.14625, 0.0, 0.0, 0.0, -0.55125, 1.435, 0.97125
8.80014896393, 0.0, 0.0, 0.0, -3.8675, 3.89375, 1.09375, 0.0, 0.0, 0.0, -0.6825, 1.19, 0.86625
8.85042500496, 0.0, 0.0, 0.0, -3.94625, 3.745, 1.12875, 0.0, 0.0, 0.0, -0.39375, 1.33875, 0.7525
8.90066981316, 0.0, 0.0, 0.0, -4.2175, 3.64, 1.33875, 0.0, 0.0, 0.0, -0.665, 1.40875, 0.9975
8.95094895363, 0.0, 0.0, 0.0, -4.12125, 3.2375, 1.40875, 0.0, 0.0, 0.0, -0.945, 1.54875, 0.84875
9.00200295448, 0.0, 0.0, 0.0, -4.27875, 3.43, 1.3475, 0.0, 0.0, 0.0, -0.525, 1.30375, 0.7875
9.05215287209, -0.0, 0.0, 0.0, -4.6725, 3.4825, 1.3125, 0.0, 0.0, 0.0, -0.9975, 0.95375, 0.77875
9.10235595703, 0.0, -0.0, 0.0, -4.45375, 3.35125, 1.23375, 0.0, 0.0, 0.0, -0.86625, 0.93625, 0.6825
9.15260601044, 0.0, -0.0, 0.0, -4.585, 3.2025, 1.14625, 0.0, 0.0, 0.0, -1.0325, 0.91875, 0.79625
9.20300388336, 0.0, -0.0, 0.0, -4.4275, 3.325, 1.085, 0.0, 0.0, 0.0, -0.77, 1.07625, 0.79625
9.25350284576, 0.0, 0.0, 0.0, -4.48, 3.4475, 1.26, 0.0, 0.0, 0.0, -0.8575, 1.12875, 1.04125
9.3037109375, -0.0, 0.0, 0.0, -4.6725, 3.64, 1.1725, 0.0, 0.0, 0.0, -0.79625, 1.26, 0.97125
9.35392689705, 0.0, -0.0, 0.0, -4.36625, 3.26375, 1.04125, 0.0, 0.0, 0.0, -0.83125, 1.1725, 0.93625
9.40411281586, 0.0, 0.0, 0.0, -4.29625, 3.57875, 0.98875, 0.0, 0.0, 0.0, -0.65625, 1.05875, 1.1375
9.45432901382, 0.0, 0.0, 0.0, -4.55875, 3.395, 1.2775, 0.0, 0.0, 0.0, -0.88375, 1.19, 0.56
9.50452899933, 0.0, 0.0, 0.0, -4.45375, 3.49125, 1.3825, 0.0, 0.0, 0.0, -0.67375, 1.12875, 0.58625
9.55468583107, 0.0, 0.0, 0.0, -4.27, 3.605, 1.33875, 0.0, 0.0, 0.0, -0.945, 0.98, 0.7
9.60490202904, 0.0, 0.0, 0.0, -4.1125, 3.42125, 1.26875, 0.0, 0.0, 0.0, -0.7525, 0.98, 0.84
9.65516495705, 0.0, -0.0, 0.0, -4.45375, 3.0275, 1.16375, 0.0, 0.0, 0.0, -0.42, 0.8925, 0.84
9.70541000366, 0.0, -0.0, 0.0, -4.01625, 3.17625, 1.2425, 0.0, 0.0, 0.0, -0.28, 0.72625, 0.84875
9.75568985939, 0.0, -0.0, 0.0, -4.01625, 2.9225, 1.30375, 0.0, 0.0, 0.0, -0.72625, 0.8225, 1.1025
9.80611395836, 0.0, -0.0, 0.0, -3.78875, 2.98375, 1.1025, 0.0, 0.0, 0.0, -0.385, 0.735, 0.23625
9.85632300377, 0.0, -0.0, 0.0, -4.36625, 2.94875, 1.47875, 0.0, 0.0, 0.0, -1.05, 0.7525, 0.72625
9.90654683113, 0.0, -0.0, 0.0, -4.0775, 3.045, 1.12875, 0.0, 0.0, 0.0, -0.69125, 0.7, 0.83125
9.95673894882, 0.0, -0.0, 0.0, -3.9375, 3.21125, 1.26, 0.0, 0.0, 0.0, -0.56875, 0.945, 0.91875
10.0070719719, 0.0, -0.0, 0.0, -4.06, 2.94875, 1.25125, 0.0, 0.0, 0.0, -0.7175, 0.84, 0.8575
10.0574200153, 0.0, -0.0, 0.0, -3.92875, 3.08875, 1.26, 0.0, 0.0, 0.0, -0.18375, 0.63875, 0.79625
10.1076388359, 0.0, -0.0, 0.0, -3.92875, 2.94875, 1.40875, 0.0, 0.0, 0.0, -0.69125, 0.735, 0.88375
10.1578118801, 0.0, -0.0, 0.0, -4.13, 3.15, 1.68, 0.0, 0.0, 0.0, -0.2625, 0.72625, 0.7875
10.2079808712, 0.0, -0.0, 0.0, -3.77125, 2.80875, 1.37375, 0.0, 0.0, 0.0, -0.245, 0.46375, 0.805
10.2582368851, 0.0, -0.0, 0.0, -3.955, 2.84375, 1.30375, 0.0, 0.0, 0.0, -0.20125, 0.6475, 0.72625
10.3084638119, 0.0, -0.0, 0.0, -3.98125, 2.86125, 1.1025, 0.0, 0.0, 0.0, -0.3325, 0.595, 1.05875
10.3586518764, 0.0, -0.0, 0.0, -3.78, 2.91375, 1.2775, 0.0, 0.0, 0.0, -0.35875, 0.76125, 0.97125
10.4088749886, 0.0, -0.0, 0.0, -3.6225, 3.03625, 1.53125, 0.0, 0.0, 0.0, -0.18375, 0.56875, 0.7
10.4592328072, 0.0, 0.0, 0.0, -3.87625, 3.47375, 1.33875, 0.0, 0.0, 0.0, -0.18375, 0.8225, 0.7525
10.5094428062, 0.0, -0.0, 0.0, -3.54375, 3.14125, 1.2775, 0.0, 0.0, 0.0, 0.02625, 0.88375, 0.77
10.5596208572, 0.0, -0.0, 0.0, -3.64, 3.3775, 1.4875, 0.0, 0.0, 0.0, -0.1925, 1.085, 0.77
10.6098589897, 0.0, 0.0, 0.0, -3.7275, 3.43875, 1.155, 0.0, 0.0, 0.0, -0.09625, 1.23375, 0.91
10.6601519585, 0.0, 0.0, 0.0, -3.6575, 3.45625, 1.1725, 0.0, 0.0, 0.0, -0.385, 1.09375, 0.83125
10.7105579376, 0.0, 0.0, 0.0, -3.64, 3.605, 1.155, 0.0, 0.0, 0.0, -0.035, 1.30375, 0.98
10.7607629299, 0.0, 0.0, 0.0, -3.7975, 3.5, 1.47, 0.0, 0.0, 0.0, 0.07, 1.33, 0.7175
10.8111188412, 0.0, 0.0, 0.0, -3.4825, 3.59625, 1.33, 0.0, 0.0, 0.0, -0.105, 1.19, 0.90125
10.8615529537, 0.0, 0.0, 0.0, -3.64, 3.50875, 1.44375, 0.0, 0.0, 0.0, -0.2625, 1.4, 0.95375
10.9117569923, 0.0, 0.0, 0.0, -3.535, 3.605, 1.37375, 0.0, 0.0, 0.0, -0.41125, 1.5225, 0.83125
10.9622268677, 0.0, 0.0, 0.0, -3.64, 3.8675, 1.30375, 0.0, 0.0, 0.0, -0.4725, 1.19875, 0.97125
11.0123679638, 0.0, 0.0, 0.0, -3.815, 3.63125, 1.19875, 0.0, 0.0, 0.0, -0.63, 1.39125, 0.56875
11.0626158714, 0.0, 0.0, 0.0, -3.98125, 3.64, 0.93625, 0.0, 0.0, 0.0, -0.53375, 1.44375, 0.60375
11.112888813, 0.0, 0.0, 0.0, -3.9725, 3.43, 1.155, 0.0, 0.0, 0.0, -0.60375, 1.40875, 0.9625
11.1631348133, 0.0, 0.0, 0.0, -4.1475, 3.57, 1.0675, 0.0, 0.0, 0.0, -0.55125, 1.4525, 0.69125
11.213411808, 0.0, 0.0, 0.0, -4.0075, 3.5525, 1.00625, 0.0, 0.0, 0.0, -0.6825, 1.1025, 0.525
11.2637598515, 0.0, 0.0, 0.0, -4.1825, 3.28125, 1.07625, 0.0, 0.0, 0.0, -0.7175, 1.3475, 0.88375
11.3140499592, 0.0, 0.0, 0.0, -4.03375, 3.57875, 1.23375, 0.0, 0.0, 0.0, -0.805, 1.02375, 0.5075
11.3643119335, 0.0, 0.0, 0.0, -4.13875, 3.47375, 1.09375, 0.0, 0.0, 0.0, -0.77875, 1.23375, 0.41125
11.4144480228, 0.0, 0.0, 0.0, -4.375, 3.56125, 1.155, 0.0, 0.0, 0.0, -0.72625, 1.3475, 0.70875
11.4646499157, 0.0, 0.0, 0.0, -4.48875, 3.78875, 1.2775, 0.0, 0.0, 0.0, -0.93625, 1.61875, 0.77875
11.5148258209, -0.0, 0.0, 0.0, -4.71625, 3.68375, 1.25125, 0.0, 0.0, 0.0, -0.91875, 1.6275, 0.58625
11.5650060177, 0.0, 0.0, 0.0, -4.5325, 4.27, 1.12, 0.0, 0.0, 0.0, -0.8225, 1.88125, 0.6475
11.6152968407, 0.0, 0.0, 0.0, -4.2525, 4.0425, 1.0325, 0.0, 0.0, 0.0, -0.76125, 1.96, 0.81375
11.6657140255, 0.0, 0.0, 0.0, -4.27, 4.22625, 1.09375, 0.0, 0.0, 0.0, -0.49875, 1.96875, 0.77875
11.715929985, 0.0, 0.0, 0.0, -4.08625, 4.165, 1.1725, 0.0, 0.0, 0.0, -0.805, 2.17, 0.8575
11.7661058903, 0.0, 0.0, 0.0, -4.27875, 4.61125, 1.1725, 0.0, 0.0, 0.0, -0.46375, 2.2925, 0.56875
11.8162789345, 0.0, 0.0, 0.0, -4.2875, 4.7075, 0.95375, 0.0, 0.0, 0.0, -0.7875, 2.30125, 0.88375
11.8664138317, 0.0, 0.0, 0.0, -4.13875, 4.61125, 1.18125, 0.0, 0.0, 0.0, -0.51625, 2.38875, 0.6825
11.9167330265, 0.0, 0.0, 0.0, -4.2, 4.48, 1.02375, 0.0, 0.0, 0.0, -0.6125, 2.51125, 0.805
11.9668979645, 0.0, 0.0, 0.0, -4.305, 4.48875, 1.16375, 0.0, 0.0, 0.0, -0.48125, 2.45, 0.63
12.0171518326, 0.0, 0.0, 0.0, -4.26125, 4.515, 1.19, 0.0, 0.0, 0.0, -0.595, 2.415, 0.90125
12.0675330162, 0.0, 0.0, 0.0, -4.17375, 4.27, 0.97125, 0.0, 0.0, 0.0, -0.42, 1.93375, 0.53375
12.1177289486, 0.0, 0.0, 0.0, -3.85, 4.0775, 0.81375, 0.0, 0.0, 0.0, -0.41125, 1.9775, 0.55125
12.1679968834, 0.0, 0.0, 0.0, -4.0075, 4.38375, 1.00625, 0.0, 0.0, 0.0, -0.41125, 2.065, 0.5775
12.2183887959, 0.0, 0.0, 0.0, -3.885, 3.96375, 0.8575, 0.0, 0.0, 0.0, -0.51625, 1.72375, 0.58625
12.2686159611, 0.0, 0.0, 0.0, -4.10375, 4.15625, 0.945, 0.0, 0.0, 0.0, -0.35, 1.79375, 0.5075
12.3188660145, 0.0, 0.0, 0.0, -3.75375, 3.94625, 0.67375, 0.0, 0.0, 0.0, -0.4025, 1.715, 0.76125
12.3690209389, 0.0, 0.0, 0.0, -4.05125, 4.0775, 1.0675, 0.0, 0.0, 0.0, -0.28875, 1.77625, 0.63875
12.4194509983, 0.0, 0.0, 0.0, -3.8675, 4.03375, 1.12875, 0.0, 0.0, 0.0, -0.18375, 1.82, 0.63875
12.4697418213, 0.0, 0.0, 0.0, -3.91125, 3.91125, 1.04125, 0.0, 0.0, 0.0, -0.105, 2.3275, 0.63875
12.519933939, 0.0, 0.0, 0.0, -3.61375, 4.34875, 1.0325, 0.0, 0.0, 0.0, 0.07875, 1.715, 0.665
12.570168972, 0.0, 0.0, 0.0, -3.61375, 4.1125, 0.95375, 0.0, 0.0, 0.0, -0.28, 1.91625, 0.735
12.620390892, 0.0, 0.0, 0.0, -3.6575, 4.2, 0.98, 0.0, 0.0, 0.0, 0.00875, 1.96, 0.49875
12.6705479622, 0.0, 0.0, 0.0, -3.675, 4.4625, 1.02375, 0.0, 0.0, 0.0, 0.02625, 1.89875, 0.53375
12.7207958698, 0.0, 0.0, 0.0, -3.605, 4.38375, 1.015, 0.0, 0.0, 0.0, -0.23625, 1.91625, 0.5425
12.7710428238, 0.0, 0.0, 0.0, -3.6575, 4.15625, 0.8575, 0.0, 0.0, 0.0, -0.3325, 2.03, 0.98875
12.8220009804, 0.0, 0.0, 0.0, -3.85, 4.1125, 1.11125, 0.0, 0.0, 0.0, 0.1925, 1.89, 0.86625
12.8729588985, 0.0, 0.0, 0.0, -3.7275, 4.34875, 1.14625, 0.0, 0.0, 0.0, -0.34125, 2.19625, 0.72625
12.9231388569, 0.0, 0.0, 0.0, -3.535, 4.24375, 0.945, 0.0, 0.0, 0.0, -0.02625, 2.1175, 0.76125
12.9734778404, 0.0, 0.0, 0.0, -3.43, 3.9375, 1.1025, 0.0, 0.0, 0.0, 0.0175, 2.07375, 0.74375
13.0236849785, 0.0, 0.0, 0.0, -3.43875, 4.305, 1.09375, 0.0, 0.0, 0.0, 0.21875, 2.24, 0.84
13.0738990307, 0.0, 0.0, 0.0, -3.6575, 4.27875, 0.88375, 0.0, 0.0, 0.0, -0.06125, 2.05625, 0.4725
13.1241137981, 0.0, 0.0, 0.0, -3.45625, 4.585, 1.07625, 0.0, 0.0, 0.0, 0.35, 2.10875, 0.5775
13.1743648052, 0.0, 0.0, 0.0, -3.24625, 4.05125, 1.015, 0.0, 0.0, 0.0, 0.14, 2.38875, 0.77875
13.2246220112, 0.0, 0.0, 0.0, -3.36, 4.4975, 0.81375, 0.0, 0.0, 0.0, 0.1575, 2.1875, 0.84875
13.2748229504, 0.0, 0.0, 0.0, -3.59625, 4.75125, 1.0325, 0.0, 0.0, 0.0, 0.32375, 2.31875, 0.56
13.325013876, 0.0, 0.0, 0.0, -3.24625, 4.7075, 0.9275, 0.0, 0.0, 0.0, 0.44625, 2.17, 0.7175
13.3752310276, 0.0, 0.0, 0.0, -3.40375, 4.90875, 0.97125, 0.0, 0.0, 0.0, 0.4025, 2.28375, 0.7
13.4254629612, 0.0, 0.0, 0.0, -3.465, 4.59375, 0.86625, 0.0, 0.0, 0.0, 0.18375, 2.4675, 0.65625
13.4756820202, 0.0, 0.0, 0.0, -3.24625, 4.6375, 0.95375, 0.0, 0.0, 0.0, 0.2975, 2.415, 0.7175
13.5260109901, 0.0, 0.0, 0.0, -3.31625, 4.55, 0.90125, 0.0, 0.0, 0.0, 0.35, 2.3625, 0.385
13.5763008595, 0.0, 0.0, 0.0, -3.50875, 4.52375, 0.95375, 0.0, 0.0, 0.0, 0.14875, 2.0125, 0.69125
13.6264958382, 0.0, 0.0, 0.0, -3.4825, 4.375, 0.91875, 0.0, 0.0, 0.0, -0.06125, 2.1525, 0.595
13.6767117977, 0.0, 0.0, 0.0, -3.745, 4.4975, 0.805, 0.0, 0.0, 0.0, -0.0875, 1.81125, 0.5775
13.7269039154, 0.0, 0.0, 0.0, -3.99875, 4.29625, 0.945, 0.0, 0.0, 0.0, -0.315, 1.995, 0.70875
13.7770450115, 0.0, 0.0, 0.0, -3.91125, 4.0425, 1.0675, 0.0, 0.0, 0.0, -0.5775, 1.9425, 0.56
13.8273079395, 0.0, 0.0, 0.0, -4.0775, 4.06875, 0.91875, 0.0, 0.0, 0.0, -0.60375, 1.77625, 0.63
13.8774588108, 0.0, 0.0, 0.0, -4.375, 4.06875, 1.09375, 0.0, 0.0, 0.0, -0.5075, 1.54875, 0.58625
13.927770853, 0.0, 0.0, 0.0, -4.19125, 4.305, 0.8925, 0.0, 0.0, 0.0, -0.5775, 1.79375, 0.5425
13.9788069725, 0.0, 0.0, 0.0, -4.08625, 4.0425, 1.2075, 0.0, 0.0, 0.0, -0.735, 1.7325, 0.4375
14.0290739536, 0.0, 0.0, 0.0, -4.29625, 4.27, 0.945, 0.0, 0.0, 0.0, -0.805, 2.17875, 0.37625
14.0794889927, 0.0, 0.0, 0.0, -4.2175, 4.4975, 1.11125, 0.0, 0.0, 0.0, -0.735, 2.16125, 0.4725
14.129860878, 0.0, 0.0, 0.0, -4.3575, 4.83, 1.05875, 0.0, 0.0, 0.0, -0.77875, 2.37125, 0.84
14.1800730228, 0.0, 0.0, 0.0, -4.13875, 4.64625, 1.14625, 0.0, 0.0, 0.0, -0.6825, 2.52875, 0.56875
14.2303478718, 0.0, 0.0, 0.0, -4.1125, 4.9525, 1.1725, 0.0, 0.0, 0.0, -0.805, 2.51125, 0.67375
14.2805500031, 0.0, 0.0, 0.0, -4.34875, 5.4075, 0.91875, 0.0, 0.0, 0.0, -1.1025, 2.59, 0.805
14.3307929039, 0.0, 0.0, 0.0, -4.5325, 5.0225, 0.95375, 0.0, 0.0, 0.0, -0.805, 2.77375, 0.7175
14.3811519146, 0.0, 0.0, 0.0, -4.0775, 5.43375, 0.84875, 0.0, 0.0, 0.0, -0.44625, 3.15, 0.58625
14.4313700199, 0.0, 0.0, 0.0, -4.03375, 5.34625, 1.05, 0.0, 0.0, 0.0, -0.35875, 3.1325, 0.7175
14.4816808701, 0.0, 0.0, 0.0, -3.745, 5.43375, 1.1375, 0.0, 0.0, 0.0, 0.0175, 2.79125, 0.60375
14.5321128368, 0.0, 0.0, 0.0, -4.06, 5.1275, 1.07625, 0.0, 0.0, 0.0, -0.35, 2.695, 0.76125
14.58228302, 0.0, 0.0, 0.0, -3.6925, 4.83875, 0.97125, 0.0, 0.0, 0.0, -0.42, 2.6775, 0.63875
14.6331179142, 0.0, 0.0, 0.0, -3.99, 4.865, 0.8225, 0.0, 0.0, 0.0, -0.56, 2.86125, 0.63875
14.6833908558, 0.0, 0.0, 0.0, -3.71, 4.6375, 0.97125, 0.0, 0.0, 0.0, -0.14, 4.4275, 0.6475
14.7337620258, 0.0, 0.0, 0.0, -3.92, 4.7425, 0.81375, 0.0, 0.0, 0.0, -0.4725, 2.45, 0.53375
14.7841098309, 0.0, 0.0, 0.0, -3.75375, 4.0425, 0.83125, 0.0, 0.0, 0.0, 0.06125, 1.81125, 0.7
14.8343839645, 0.0, 0.0, 0.0, -3.64, 4.0075, 0.9275, 0.0, 0.0, 0.0, -0.245, 1.68875, 0.56
14.8846390247, 0.0, 0.0, 0.0, -3.7975, 3.89375, 0.8925, 0.0, 0.0, 0.0, -0.25375, 1.5925, 0.67375
14.9348409176, 0.0, 0.0, 0.0, -3.52625, 3.80625, 1.18125, 0.0, 0.0, 0.0, -0.09625, 1.54, 0.72625
14.98503685, 0.0, 0.0, 0.0, -3.77125, 3.64, 0.97125, 0.0, 0.0, 0.0, -0.28875, 1.40875, 0.62125
15.0352649689, 0.0, 0.0, 0.0, -3.99, 3.66625, 0.9275, 0.0, 0.0, 0.0, -0.28, 1.19875, 0.34125
15.0854728222, 0.0, -0.0, -0.0, -3.78875, 3.3425, 0.67375, 0.0, 0.0, 0.0, -0.16625, 0.95375, 0.175
15.1357200146, 0.0, -0.0, 0.0, -3.9725, 3.2375, 0.875, 0.0, 0.0, 0.0, -0.175, 0.93625, 0.65625
15.1865358353, 0.0, -0.0, -0.0, -3.78, 2.98375, 0.69125, 0.0, 0.0, 0.0, 0.09625, 0.86625, 0.105
15.2367539406, 0.0, -0.0, 0.0, -3.92, 2.9575, 0.83125, 0.0, 0.0, 0.0, -0.0875, 0.7, 0.49875
15.287019968, 0.0, -0.0, 0.0, -4.0425, 3.1325, 0.6825, 0.0, 0.0, 0.0, -0.18375, 0.63875, 0.525
15.3371818066, 0.0, -0.0, 0.0, -3.71875, 3.08, 0.8575, 0.0, 0.0, 0.0, -0.44625, 1.07625, 0.3325
15.3873608112, 0.0, -0.0, 0.0, -3.78875, 3.1675, 0.84, 0.0, 0.0, 0.0, -0.4375, 1.04125, 0.44625
15.4375388622, 0.0, 0.0, 0.0, -3.99, 3.4825, 0.98, 0.0, 0.0, 0.0, -0.41125, 1.09375, 0.2975
15.4877328873, 0.0, 0.0, 0.0, -3.85875, 3.465, 0.79625, 0.0, 0.0, 0.0, -0.49, 1.085, 0.65625
15.5379238129, 0.0, 0.0, 0.0, -3.94625, 3.66625, 0.86625, 0.0, 0.0, 0.0, -0.315, 1.32125, 0.51625
15.5884978771, 0.0, 0.0, -0.0, -3.89375, 3.49125, 0.595, 0.0, 0.0, 0.0, -0.44625, 1.11125, 0.315
15.6387109756, 0.0, 0.0, 0.0, -3.84125, 3.89375, 0.7875, 0.0, 0.0, 0.0, -0.20125, 1.42625, 0.35875
15.6889388561, 0.0, 0.0, 0.0, -3.7975, 3.75375, 0.84, 0.0, 0.0, 0.0, -0.3675, 1.46125, 0.28
15.739125967, 0.0, 0.0, 0.0, -3.745, 3.99, 0.76125, 0.0, 0.0, 0.0, -0.2275, 1.91625, 0.7875
15.7893660069, 0.0, 0.0, 0.0, -3.96375, 4.10375, 0.90125, 0.0, 0.0, 0.0, -0.4025, 1.715, 0.28
15.8397569656, 0.0, 0.0, 0.0, -3.71875, 3.99, 0.76125, 0.0, 0.0, 0.0, -0.21, 2.00375, 0.5425
15.8900609016, 0.0, 0.0, 0.0, -3.9025, 4.08625, 0.86625, 0.0, 0.0, 0.0, -0.1925, 2.03, 0.21875
15.9402940273, 0.0, 0.0, 0.0, -3.87625, 3.96375, 0.9275, 0.0, 0.0, 0.0, -0.32375, 2.05625, 0.46375
15.9905698299, 0.0, 0.0, 0.0, -3.84125, 4.1475, 0.7875, 0.0, 0.0, 0.0, -0.41125, 1.8725, 0.49875
16.0409429073, 0.0, 0.0, -0.0, -3.815, 3.7625, 0.74375, 0.0, 0.0, 0.0, -0.21875, 1.9075, 0.42
16.0911250114, 0.0, 0.0, 0.0, -4.2, 3.5175, 1.00625, 0.0, 0.0, 0.0, -0.21, 1.3825, 0.32375
16.141368866, 0.0, 0.0, 0.0, -4.06, 3.73625, 0.7875, 0.0, 0.0, 0.0, -0.77, 1.14625, 0.595
16.1916348934, 0.0, 0.0, -0.0, -4.1825, 3.5, 0.63875, 0.0, 0.0, 0.0, -0.7175, 1.00625, 0.1925
16.2418148518, 0.0, -0.0, 0.0, -4.12125, 3.08875, 0.79625, 0.0, 0.0, 0.0, -0.67375, 0.86625, 0.5775
16.2920458317, 0.0, -0.0, -0.0, -4.2, 3.115, 0.76125, 0.0, 0.0, 0.0, -0.53375, 0.70875, 0.32375
16.3423008919, 0.0, -0.0, -0.0, -4.1825, 2.89625, 0.72625, 0.0, 0.0, 0.0, -0.69125, 0.69125, 0.2975
16.3925080299, -0.0, -0.0, 0.0, -4.73375, 2.94875, 0.93625, 0.0, 0.0, 0.0, -0.76125, 0.63875, 0.46375
16.4427518845, 0.0, -0.0, -0.0, -4.0425, 2.86125, 0.7, 0.0, 0.0, 0.0, -0.58625, 0.56875, 0.1925
16.4929068089, 0.0, -0.0, -0.0, -4.17375, 2.79125, 0.735, 0.0, 0.0, 0.0, -0.81375, 0.79625, 0.20125
16.5431778431, 0.0, -0.0, 0.0, -4.38375, 3.0625, 0.84875, 0.0, 0.0, 0.0, -0.6475, 0.41125, 0.07875
16.5937469006, 0.0, -0.0, -0.0, -4.57625, 2.87, 0.77, 0.0, 0.0, 0.0, -0.7, 0.65625, 0.30625
16.643914938, 0.0, -0.0, -0.0, -4.19125, 3.19375, 0.63875, 0.0, 0.0, 0.0, -0.65625, 0.69125, 0.385
16.6941149235, 0.0, -0.0, -0.0, -3.94625, 2.87875, 0.5075, 0.0, 0.0, 0.0, -0.53375, 0.95375, 0.35
16.7442758083, 0.0, 0.0, -0.0, -3.92, 3.4825, 0.56875, 0.0, 0.0, 0.0, -0.4375, 1.07625, 0.3325
16.7956929207, 0.0, 0.0, -0.0, -4.06, 3.54375, 0.7, 0.0, 0.0, 0.0, -0.55125, 1.23375, 0.20125
16.8459608555, 0.0, 0.0, -0.0, -3.96375, 3.94625, 0.56, 0.0, 0.0, 0.0, -0.30625, 1.30375, 0.14
16.8962249756, 0.0, 0.0, 0.0, -3.71875, 3.64, 0.91, 0.0, 0.0, 0.0, -0.32375, 1.53125, 0.1925
16.9466969967, 0.0, 0.0, 0.0, -3.745, 4.03375, 0.84875, 0.0, 0.0, 0.0, -0.30625, 2.05625, 0.525
16.9971969128, 0.0, 0.0, 0.0, -4.10375, 4.24375, 0.84, 0.0, 0.0, 0.0, -0.16625, 1.88125, 0.27125
17.0474019051, 0.0, 0.0, -0.0, -3.92875, 3.92, 0.4725, 0.0, 0.0, 0.0, -0.1225, 1.6975, 0.39375
17.0975768566, 0.0, 0.0, 0.0, -3.73625, 3.94625, 0.70875, 0.0, 0.0, 0.0, -0.1925, 1.68875, 0.525
17.1477839947, 0.0, 0.0, -0.0, -4.15625, 3.85, 0.74375, 0.0, 0.0, 0.0, -0.14875, 1.365, 0.25375
17.1979758739, 0.0, 0.0, 0.0, -3.9025, 3.87625, 0.805, 0.0, 0.0, 0.0, -0.06125, 1.4525, 0.2275
17.2481739521, 0.0, 0.0, 0.0, -4.01625, 3.73625, 0.8925, 0.0, 0.0, 0.0, -0.37625, 1.0675, 0.25375
17.2984008789, 0.0, 0.0, 0.0, -4.19125, 3.49125, 0.93625, 0.0, 0.0, 0.0, -0.48125, 1.3475, 0.28
17.3486938477, 0.0, -0.0, -0.0, -3.885, 3.38625, 0.76125, 0.0, 0.0, 0.0, -0.5425, 1.46125, 0.37625
17.3988568783, 0.0, 0.0, -0.0, -3.8325, 3.57875, 0.56, 0.0, 0.0, 0.0, -0.595, 1.02375, 0.37625
17.4490380287, 0.0, 0.0, 0.0, -4.06875, 3.61375, 0.88375, 0.0, 0.0, 0.0, -0.7525, 1.575, 0.5075
17.4991738796, 0.0, 0.0, 0.0, -4.10375, 3.395, 0.805, 0.0, 0.0, 0.0, -0.48125, 1.645, 0.48125
17.549407959, 0.0, 0.0, 0.0, -4.4625, 3.57, 0.84, 0.0, 0.0, 0.0, -0.4025, 1.11125, 0.525
17.5996568203, -0.0, 0.0, -0.0, -4.55875, 3.45625, 0.8925, 0.0, 0.0, 0.0, -1.05, 1.32125, 0.56875
17.6498999596, 0.0, 0.0, -0.0, -3.955, 3.68375, 0.70875, 0.0, 0.0, 0.0, -0.69125, 1.30375, 0.28
17.7002689838, 0.0, 0.0, 0.0, -4.55, 3.64875, 0.77875, 0.0, 0.0, 0.0, -0.27125, 1.11125, 0.46375
17.7515749931, 0.0, 0.0, 0.0, -4.10375, 3.745, 0.84, 0.0, 0.0, 0.0, -0.48125, 1.39125, 0.46375
17.8020279408, 0.0, 0.0, 0.0, -3.78875, 3.77125, 0.84, 0.0, 0.0, 0.0, -0.1575, 1.49625, 0.1225
17.852298975, 0.0, 0.0, 0.0, -3.7625, 3.7975, 0.95375, 0.0, 0.0, 0.0, -0.49875, 1.5575, 0.46375
17.903316021, 0.0, 0.0, 0.0, -3.82375, 3.70125, 0.84, 0.0, 0.0, 0.0, -0.3675, 1.6625, 0.44625
17.9535608292, 0.0, 0.0, 0.0, -3.6575, 3.7625, 0.84, 0.0, 0.0, 0.0, 0.09625, 1.54875, 0.34125
18.0038108826, 0.0, 0.0, -0.0, -3.68375, 3.71875, 0.72625, 0.0, 0.0, 0.0, -0.0525, 1.5575, 0.28875
18.0540018082, 0.0, 0.0, 0.0, -3.36875, 3.745, 0.86625, 0.0, 0.0, 0.0, -0.07, 1.88125, 0.49
18.1041789055, 0.0, 0.0, 0.0, -3.61375, 4.29625, 0.95375, 0.0, 0.0, 0.0, 0.00875, 1.54875, 0.67375
18.1543858051, 0.0, 0.0, 0.0, -3.43, 4.0775, 0.91875, 0.0, 0.0, 0.0, 0.16625, 1.995, 0.2625
18.2045748234, 0.0, 0.0, 0.0, -3.5525, 4.2175, 0.98, 0.0, 0.0, 0.0, 0.1225, 1.75875, 0.49
18.2548398972, 0.0, 0.0, 0.0, -3.745, 4.43625, 1.05875, 0.0, 0.0, 0.0, 0.18375, 1.96875, 0.4725
18.3050248623, 0.0, 0.0, 0.0, -3.6925, 4.66375, 0.74375, 0.0, 0.0, 0.0, -0.16625, 1.96, 0.55125
18.3551778793, 0.0, 0.0, 0.0, -3.465, 4.55875, 0.79625, 0.0, 0.0, 0.0, 0.04375, 2.1875, 0.77875
18.4054269791, 0.0, 0.0, 0.0, -3.42125, 4.61125, 0.88375, 0.0, 0.0, 0.0, 0.13125, 2.21375, 0.7525
18.4556097984, 0.0, 0.0, -0.0, -3.325, 4.445, 0.7525, 0.0, 0.0, 0.0, 0.21875, 2.485, 0.42875
18.5060689449, 0.0, 0.0, -0.0, -3.21125, 6.58, 0.6825, 0.0, 0.0, 0.0, 0.0175, 2.26625, 0.53375
18.5563769341, 0.0, 0.0, -0.0, -3.605, 4.55, 0.735, 0.0, 0.0, 0.0, -0.20125, 2.45, 0.3675
18.6065449715, 0.0, 0.0, 0.0, -3.5175, 4.36625, 0.665, 0.0, 0.0, 0.0, 0.13125, 2.24875, 0.525
18.6568169594, 0.0, 0.0, 0.0, -3.605, 4.62875, 0.65625, 0.0, 0.0, 0.0, -0.25375, 2.415, 0.60375
18.7070598602, 0.0, 0.0, 0.0, -3.59625, 4.43625, 0.98875, 0.0, 0.0, 0.0, -0.16625, 2.28375, 0.42875
18.7574808598, 0.0, 0.0, 0.0, -3.745, 4.15625, 0.74375, 0.0, 0.0, 0.0, -0.0525, 1.84625, 0.5425
18.8078730106, 0.0, 0.0, 0.0, -3.675, 4.13875, 0.84875, 0.0, 0.0, 0.0, -0.5075, 1.98625, 0.2625
18.8580369949, 0.0, 0.0, 0.0, -3.77125, 4.27, 0.95375, 0.0, 0.0, 0.0, -0.42, 1.8025, 0.315
18.9082419872, 0.0, 0.0, -0.0, -3.96375, 4.0425, 0.70875, 0.0, 0.0, 0.0, -0.48125, 1.74125, 0.21
18.9584980011, 0.0, 0.0, 0.0, -4.0075, 3.9725, 0.77, 0.0, 0.0, 0.0, -0.88375, 1.68875, 0.51625
19.0088160038, 0.0, 0.0, 0.0, -4.01625, 4.05125, 0.86625, 0.0, 0.0, 0.0, -0.7175, 1.7325, 0.49875
19.0593090057, 0.0, 0.0, -0.0, -4.2, 4.445, 0.63, 0.0, 0.0, 0.0, -0.69125, 1.89, 0.23625
19.1096978188, 0.0, 0.0, -0.0, -4.24375, 4.06, 0.72625, 0.0, 0.0, 0.0, -0.4025, 1.575, 0.42875
19.1598880291, 0.0, 0.0, 0.0, -4.19125, 3.6925, 0.875, 0.0, 0.0, 0.0, -0.48125, 1.6275, 0.76125
19.2101249695, 0.0, 0.0, 0.0, -4.4975, 3.885, 0.84875, 0.0, 0.0, 0.0, -0.6825, 1.82, 0.3675
19.2603969574, 0.0, 0.0, -0.0, -4.025, 3.70125, 0.665, 0.0, 0.0, 0.0, -0.5775, 1.53125, 0.455
19.3105788231, 0.0, 0.0, 0.0, -4.025, 4.12125, 1.0675, 0.0, 0.0, 0.0, -0.455, 1.72375, 0.46375
19.3608379364, 0.0, 0.0, -0.0, -3.92, 4.12125, 0.70875, 0.0, 0.0, 0.0, -0.2275, 1.84625, -0.0175
19.4112238884, 0.0, 0.0, -0.0, -3.84125, 4.38375, 0.67375, 0.0, 0.0, 0.0, -0.55125, 2.31, 0.35
19.4616789818, 0.0, 0.0, -0.0, -3.68375, 4.48, 0.63875, 0.0, 0.0, 0.0, -0.07, 2.26625, 0.39375
19.5119068623, 0.0, 0.0, 0.0, -3.96375, 4.69875, 0.7175, 0.0, 0.0, 0.0, -0.13125, 2.79125, 0.7875
19.5620808601, 0.0, 0.0, 0.0, -3.92875, 5.005, 0.81375, 0.0, 0.0, 0.0, -0.2275, 2.94875, 0.28
19.6122620106, 0.0, 0.0, 0.0, -3.5525, 5.0925, 0.63875, 0.0, 0.0, 0.0, -0.245, 2.9575, 0.56
19.6624708176, 0.0, 0.0, 0.0, -3.675, 5.46875, 0.76125, 0.0, 0.0, 0.0, -0.4375, 3.185, 0.7175
19.7127029896, 0.0, 0.0, 0.0, -3.75375, 5.355, 1.1375, 0.0, 0.0, 0.0, -0.18375, 3.14125, 0.9275
19.7629919052, 0.0, 0.0, 0.0, -3.71, 5.64375, 0.93625, 0.0, 0.0, 0.0, -0.2275, 3.255, 0.97125
19.8132228851, 0.0, 0.0, -0.0, -3.43875, 5.46, 0.7, 0.0, 0.0, 0.0, -0.18375, 3.05375, 0.3325
19.8634870052, 0.0, 0.0, 0.0, -3.85, 5.3375, 0.62125, 0.0, 0.0, 0.0, -0.5775, 2.58125, 0.49875
19.9136638641, 0.0, 0.0, -0.0, -3.7625, 4.7425, 0.735, 0.0, 0.0, 0.0, -0.4025, 2.5375, 0.48125
19.9640059471, 0.0, 0.0, -0.0, -4.13, 4.6025, 0.63, 0.0, 0.0, 0.0, -0.53375, 2.31, 0.28875
20.0144319534, 0.0, 0.0, -0.0, -3.675, 4.64625, 0.58625, 0.0, 0.0, 0.0, -0.13125, 1.98625, 0.20125
20.0646548271, 0.0, 0.0, 0.0, -4.025, 3.92, 0.77875, 0.0, 0.0, 0.0, -0.0175, 1.575, 0.32375
20.1149179935, 0.0, 0.0, 0.0, -3.77125, 3.82375, 0.77, 0.0, 0.0, 0.0, -0.35, 1.58375, 0.49
20.1660590172, 0.0, 0.0, -0.0, -4.06875, 3.45625, 0.8575, 0.0, 0.0, 0.0, -0.32375, 1.32125, 0.32375
20.2169368267, 0.0, -0.0, -0.0, -4.095, 2.94, 0.6125, 0.0, 0.0, 0.0, -0.42875, 0.84875, 0.20125
20.267223835, 0.0, -0.0, -0.0, -3.94625, 2.40625, 0.58625, 0.0, 0.0, 0.0, -0.6475, 0.34125, 0.11375
20.3174269199, 0.0, -0.0, 0.0, -4.27875, 2.42375, 0.8925, 0.0, 0.0, 0.0, -0.9975, 0.21, -0.11375
20.3677039146, 0.0, -0.0, -0.0, -4.10375, 2.065, 0.34125, 0.0, 0.0, 0.0, -0.63875, -0.13125, 0.0175
20.4181928635, 0.0, -0.0, -0.0, -4.0075, 1.96875, 0.53375, 0.0, 0.0, 0.0, -0.76125, -0.06125, 0.0175
20.4683868885, 0.0, -0.0, -0.0, -3.94625, 2.21375, 0.63875, 0.0, 0.0, 0.0, -0.42, 0.30625, 0.0175
20.5185899734, 0.0, -0.0, -0.0, -3.70125, 2.94875, 0.46375, 0.0, 0.0, 0.0, -0.6125, 0.945, 0.0
20.5687777996, 0.0, -0.0, -0.0, -3.9025, 3.22875, 0.5775, 0.0, 0.0, 0.0, -0.62125, 1.1025, 0.18375
20.6194348335, 0.0, 0.0, -0.0, -3.84125, 3.57, 0.60375, 0.0, 0.0, 0.0, -0.0875, 1.32125, 0.16625
20.6696670055, 0.0, 0.0, -0.0, -3.87625, 3.52625, 0.5775, 0.0, 0.0, 0.0, -0.5425, 1.40875, 0.385
20.7198159695, 0.0, 0.0, -0.0, -3.6925, 3.535, 0.5425, 0.0, 0.0, 0.0, -0.18375, 1.12875, 0.0525
20.7701158524, 0.0, -0.0, -0.0, -3.73625, 2.94, 0.53375, 0.0, 0.0, 0.0, -0.245, 0.86625, -0.02625
20.8205559254, 0.0, -0.0, -0.0, -3.96375, 2.975, 0.525, 0.0, 0.0, 0.0, -0.56, 0.53375, -0.245
20.8708198071, 0.0, -0.0, -0.0, -3.99875, 2.5025, 0.5425, 0.0, 0.0, 0.0, -0.42875, 0.23625, 0.1225
20.9213228226, 0.0, -0.0, -0.0, -4.15625, 2.33625, 0.4725, 0.0, 0.0, 0.0, -0.58625, 0.35, -0.0525
20.9720079899, 0.0, -0.0, -0.0, -4.06, 2.24, 0.175, 0.0, 0.0, 0.0, -0.37625, 0.07, -0.11375
21.0222280025, 0.0, -0.0, -0.0, -4.13, 1.79375, 0.63875, 0.0, 0.0, 0.0, -0.39375, -0.34125, -0.42
21.0724649429, 0.0, -0.0, -0.0, -4.06875, 1.44375, 0.44625, 0.0, 0.0, 0.0, -0.56875, -0.7875, -0.1575
21.1226439476, 0.0, -0.0, -0.0, -4.41, 0.84875, 0.1575, 0.0, 0.0, 0.0, -0.84, -1.4, -0.39375
21.1728079319, -0.0, -0.0, -0.0, -4.78625, 0.07, 0.23625, 0.0, 0.0, 0.0, -1.3475, -2.16125, -0.42875
21.2230088711, 0.0, -0.0, -0.0, -4.52375, -0.65625, 0.21875, 0.0, 0.0, 0.0, -1.12875, -2.61625, -0.42
21.2731838226, 0.0, -0.0, -0.0, -4.4625, -1.0675, -0.02625, 0.0, 0.0, 0.0, -1.1375, -3.59625, -0.62125
21.3234469891, 0.0, -0.0, -0.0, -4.59375, -1.67125, -0.0525, 0.0, 0.0, 0.0, -1.575, -3.675, -1.3475
21.3754580021, -0.0, -0.0, -0.0, -4.8125, -1.4875, -0.14875, 0.0, 0.0, 0.0, -1.2425, -3.78875, -0.945
21.4257059097, -0.0, -0.0, -0.0, -4.9175, -1.6275, -0.06125, 0.0, 0.0, 0.0, -1.54875, -3.7275, -0.90125
21.4759399891, -0.0, -0.0, -0.0, -5.0575, -1.365, -0.42875, 0.0, 0.0, 0.0, -1.54, -3.33375, -0.88375
21.5261788368, -0.0, -0.0, -0.0, -4.7775, -1.015, -0.175, 0.0, 0.0, 0.0, -1.16375, -3.045, -0.735
21.5768239498, -0.0, -0.0, -0.0, -4.83, 0.2625, -0.14875, 0.0, 0.0, 0.0, -1.23375, -2.23125, -0.83125
21.6273169518, -0.0, -0.0, -0.0, -6.69375, 0.55125, -0.13125, 0.0, 0.0, 0.0, -0.98, -1.51375, -0.5425
21.677562952, 0.0, -0.0, -0.0, -4.2875, 1.39125, 0.0, 0.0, 0.0, 0.0, -0.84875, -0.4725, -0.8225
21.7279720306, 0.0, -0.0, -0.0, -4.06, 2.52, 0.06125, 0.0, 0.0, 0.0, -0.875, 0.56, -0.76125
21.7784659863, 0.0, 0.0, -0.0, -3.52625, 3.6925, -0.035, 0.0, 0.0, 0.0, -0.1225, 1.95125, -0.60375
21.828660965, 0.0, 0.0, -0.0, -3.36875, 4.96125, 0.13125, 0.0, 0.0, 0.0, -0.07875, 2.8175, -0.39375
21.8789329529, 0.0, 0.0, -0.0, -3.3775, 5.9325, 0.18375, 0.0, 0.0, 0.0, 2.205, 3.94625, -0.34125
21.929202795, 0.0, 0.0, -0.0, -3.24625, 6.83375, -0.16625, 0.0, 0.0, 0.0, 0.42, 4.55, -0.41125
21.9794478416, 0.0, 0.0, -0.0, -3.15, 7.16625, -0.175, 0.0, 0.0, 0.0, 0.5425, 5.1625, -0.21
22.0296268463, 0.0, 0.0, -0.0, -2.82625, 7.55125, -0.13125, 0.0, 0.0, 0.0, 0.48125, 5.43375, -0.385
22.0798180103, 0.0, 0.0, -0.0, -3.01, 7.72625, -0.14875, 0.0, 0.0, 0.0, 0.65625, 5.38125, 0.00875
22.1299898624, 0.0, 0.0, -0.0, -3.2025, 7.65625, -0.0175, 0.0, 0.0, 0.0, 0.595, 5.39875, -0.21
22.1806488037, 0.0, 0.0, -0.0, -3.0275, 7.2625, -0.245, 0.0, 0.0, 0.0, 0.7175, 5.24125, -0.55125
22.2310199738, 0.0, 0.0, -0.0, -3.33375, 7.105, -0.1925, 0.0, 0.0, 0.0, 0.42875, 4.6725, -0.32375
22.2814359665, 0.0, 0.0, -0.0, -3.1325, 6.72, -0.56, 0.0, 0.0, 0.0, 0.0875, 4.445, -0.67375
22.3317158222, 0.0, 0.0, -0.0, -3.73625, 6.1075, -0.42, 0.0, 0.0, 0.0, 0.00875, 4.27, -0.6825
22.3819758892, 0.0, 0.0, -0.0, -3.43875, 5.4075, -0.74375, 0.0, 0.0, 0.0, 0.21875, 3.395, -0.86625
22.4322168827, 0.0, 0.0, -0.0, -3.63125, 4.97, -0.65625, 0.0, 0.0, 0.0, 0.00875, 3.01, -0.8225
22.4824678898, 0.0, 0.0, -0.0, -3.94625, 4.4975, -0.945, 0.0, 0.0, 0.0, -0.16625, 2.24875, -0.97125
22.5328428745, 0.0, 0.0, -0.0, -3.9725, 3.9375, -0.77875, 0.0, 0.0, 0.0, -0.385, 1.785, -1.19875
22.5830509663, 0.0, 0.0, -0.0, -3.9375, 3.42125, -0.945, 0.0, 0.0, 0.0, -0.60375, 0.98, -1.58375
22.6333069801, 0.0, -0.0, -0.0, -4.05125, 2.555, -0.91, 0.0, 0.0, 0.0, -0.70875, 0.63875, -1.61875
22.6835289001, 0.0, -0.0, -0.0, -4.1125, 2.0475, -1.3125, 0.0, 0.0, 0.0, -0.56, 0.39375, -1.37375
22.7337448597, 0.0, -0.0, -0.0, -3.9025, 1.53125, -1.40875, 0.0, 0.0, 0.0, -0.595, -0.385, -1.68875
22.7840819359, 0.0, -0.0, -0.0, -4.57625, 1.81125, -1.3125, 0.0, 0.0, 0.0, -0.5075, -0.39375, -1.79375
22.8344340324, 0.0, -0.0, -0.0, -4.41, 1.42625, -1.2075, 0.0, 0.0, 0.0, -0.91, -0.74375, -1.89
22.8846390247, 0.0, -0.0, -0.0, -4.20875, 1.19875, -1.40875, 0.0, 0.0, 0.0, -0.81375, -0.9975, -1.68
22.9348659515, -0.0, -0.0, -0.0, -4.66375, 1.51375, -1.25125, 0.0, 0.0, 0.0, -0.76125, -0.49875, -1.82
22.9850409031, 0.0, -0.0, -0.0, -2.31875, 1.46125, -1.18125, 0.0, 0.0, 0.0, -0.63, -0.60375, -1.82
23.0352048874, 0.0, -0.0, -0.0, -4.61125, 1.47875, -1.3125, 0.0, 0.0, 0.0, -0.62125, -0.2975, -1.72375
23.0854918957, 0.0, -0.0, -0.0, -4.13875, 1.89, -1.12, 0.0, 0.0, 0.0, -0.53375, 0.11375, -1.70625
23.1358249187, 0.0, -0.0, -0.0, -4.38375, 2.31, -1.4, 0.0, 0.0, 0.0, -0.60375, 0.28875, -1.60125
23.1860258579, 0.0, -0.0, -0.0, -4.40125, 2.87875, -1.365, 0.0, 0.0, 0.0, -0.42, 1.04125, -1.7325
23.2363638878, 0.0, -0.0, -0.0, -3.99, 3.08, -1.49625, 0.0, 0.0, 0.0, -0.18375, 1.1375, -1.5575
23.2865858078, 0.0, 0.0, -0.0, -3.66625, 3.71875, -1.295, 0.0, 0.0, 0.0, -0.49, 2.07375, -1.40875
23.3367860317, 0.0, 0.0, -0.0, -3.6575, 4.305, -1.1725, 0.0, 0.0, 0.0, 0.0525, 2.5025, -1.61
23.3870089054, 0.0, 0.0, -0.0, -3.63125, 4.8125, -0.97125, 0.0, 0.0, 0.0, 0.1575, 2.73, -1.70625
23.4371328354, 0.0, 0.0, -0.0, -3.4125, 4.92625, -1.32125, 0.0, 0.0, 0.0, 0.20125, 3.01, -1.32125
23.487295866, 0.0, 0.0, -0.0, -3.22875, 5.285, -1.1725, 0.0, 0.0, 0.0, 0.25375, 2.94, -1.32125
23.5374829769, 0.0, 0.0, -0.0, -3.4125, 5.17125, -1.16375, 0.0, 0.0, 0.0, 0.21, 3.045, -1.0675
23.5876779556, 0.0, 0.0, -0.0, -3.22875, 5.18, -1.26, 0.0, 0.0, 0.0, 0.27125, 3.22875, -1.47875
23.6378948689, 0.0, 0.0, -0.0, -3.2725, 4.97, -1.25125, 0.0, 0.0, 0.0, -0.07875, 3.21125, -1.5225
23.6881330013, 0.0, 0.0, -0.0, -3.6225, 5.15375, -1.2425, 0.0, 0.0, 0.0, 0.06125, 2.91375, -1.645
23.7385048866, 0.0, 0.0, -0.0, -3.40375, 4.85625, -1.25125, 0.0, 0.0, 0.0, 0.13125, 3.01, -1.5925
23.7887089252, 0.0, 0.0, -0.0, -3.9025, 4.68125, -1.365, 0.0, 0.0, 0.0, -0.13125, 2.8875, -1.91625
23.8388729095, 0.0, 0.0, -0.0, -3.45625, 4.27875, -1.39125, 0.0, 0.0, 0.0, -0.14, 2.61625, -1.60125
23.8890459538, 0.0, 0.0, -0.0, -3.70125, 4.31375, -1.25125, 0.0, 0.0, 0.0, -0.07875, 2.17, -1.60125
23.9393849373, 0.0, 0.0, -0.0, -3.68375, 3.7975, -1.53125, 0.0, 0.0, 0.0, 0.07, 1.96875, -1.925
23.9896068573, 0.0, 0.0, -0.0, -3.6225, 3.6575, -1.21625, 0.0, 0.0, 0.0, -0.245, 1.68, -1.9075
24.0398769379, 0.0, 0.0, -0.0, -3.64, 3.605, -1.44375, 0.0, 0.0, 0.0, -0.07875, 1.645, -1.82875
24.0901298523, 0.0, 0.0, -0.0, -4.08625, 3.4475, -1.42625, 0.0, 0.0, 0.0, -0.44625, 1.4875, -1.74125
24.1403698921, 0.0, -0.0, -0.0, -3.49125, 3.28125, -1.40875, 0.0, 0.0, 0.0, -0.34125, 1.12875, -1.61875
24.1906108856, 0.0, 0.0, -0.0, -3.9375, 3.5175, -1.32125, 0.0, 0.0, 0.0, -0.35875, 1.21625, -1.8725
24.240913868, 0.0, -0.0, -0.0, -3.7275, 3.29875, -1.1725, 0.0, 0.0, 0.0, -0.23625, 1.1025, -1.98625
24.2910528183, 0.0, -0.0, -0.0, -3.9025, 3.29, -1.39125, 0.0, 0.0, 0.0, -0.07, 1.35625, -1.60125
24.3412418365, 0.0, 0.0, -0.0, -4.03375, 3.395, -1.51375, 0.0, 0.0, 0.0, -0.4025, 1.58375, -1.715
24.3915219307, 0.0, 0.0, -0.0, -3.78, 3.66625, -1.33875, 0.0, 0.0, 0.0, -0.3325, 1.4525, -1.53125
24.441699028, 0.0, 0.0, -0.0, -3.9725, 3.8675, -1.435, 0.0, 0.0, 0.0, -0.28, 1.855, -1.74125
24.4919090271, 0.0, 0.0, -0.0, -4.0425, 4.05125, -1.47875, 0.0, 0.0, 0.0, -0.385, 1.74125, -1.7675
24.5422019958, 0.0, 0.0, -0.0, -3.99, 4.24375, -1.04125, 0.0, 0.0, 0.0, -0.14875, 2.345, -1.5575
24.5924417973, 0.0, 0.0, -0.0, -4.12125, 4.3925, -1.225, 0.0, 0.0, 0.0, -0.46375, 2.47625, -1.47
24.6427028179, 0.0, 0.0, -0.0, -3.98125, 4.6375, -1.085, 0.0, 0.0, 0.0, -0.2975, 2.765, -1.47
24.6930449009, 0.0, 0.0, -0.0, -4.06875, 4.94375, -1.09375, 0.0, 0.0, 0.0, -0.18375, 3.0975, -1.365
24.7432010174, 0.0, 0.0, -0.0, -3.68375, 4.9, -1.00625, 0.0, 0.0, 0.0, -0.37625, 3.31625, -1.26
24.7934389114, 0.0, 0.0, -0.0, -3.56125, 5.145, -1.21625, 0.0, 0.0, 0.0, -0.3325, 3.115, -1.365
24.8436288834, 0.0, 0.0, -0.0, -3.63125, 5.24125, -1.085, 0.0, 0.0, 0.0, 0.1225, 3.0975, -1.37375
24.8938009739, 0.0, 0.0, -0.0, -3.77125, 5.38125, -1.07625, 0.0, 0.0, 0.0, 0.1225, 3.5, -1.28625
24.9440228939, 0.0, 0.0, -0.0, -3.2375, 5.31125, -0.9275, 0.0, 0.0, 0.0, 0.16625, 3.38625, -1.26
24.9942169189, 0.0, 0.0, -0.0, -3.57875, 5.29375, -0.74375, 0.0, 0.0, 0.0, 0.0525, 3.08875, -1.2775
25.0443639755, 0.0, 0.0, -0.0, -3.47375, 5.20625, -1.015, 0.0, 0.0, 0.0, 0.385, 3.43875, -1.19875
25.0945780277, 0.0, 0.0, -0.0, -3.40375, 5.005, -0.7, 0.0, 0.0, 0.0, 0.23625, 3.115, -0.90125
25.1447999477, 0.0, 0.0, -0.0, -3.35125, 5.17125, -0.6825, 0.0, 0.0, 0.0, 0.49875, 3.045, -1.1375
25.19520998, 0.0, 0.0, -0.0, -3.3425, 5.0225, -0.77, 0.0, 0.0, 0.0, 0.35, 2.9925, -1.28625
25.2456378937, 0.0, 0.0, -0.0, -3.465, 5.15375, -0.60375, 0.0, 0.0, 0.0, 0.245, 2.905, -1.00625
25.2959020138, 0.0, 0.0, -0.0, -3.52625, 4.9875, -0.84875, 0.0, 0.0, 0.0, 0.37625, 2.63375, -0.8925
25.346282959, 0.0, 0.0, -0.0, -3.29, 4.8825, -0.76125, 0.0, 0.0, 0.0, 0.1925, 3.01875, -0.88375
25.3966748714, 0.0, 0.0, -0.0, -3.49125, 5.005, -0.72625, 0.0, 0.0, 0.0, 0.21, 2.86125, -1.16375
25.4468379021, 0.0, 0.0, -0.0, -3.54375, 5.11, -0.7, 0.0, 0.0, 0.0, 0.1225, 2.8525, -0.81375
25.4971299171, 0.0, 0.0, -0.0, -3.675, 5.355, -0.49, 0.0, 0.0, 0.0, 0.105, 2.695, -0.91875
25.5473539829, 0.0, 0.0, -0.0, -3.75375, 4.9175, -0.3675, 0.0, 0.0, 0.0, 0.455, 2.7825, -0.805
25.5976538658, 0.0, 0.0, -0.0, -3.57875, 4.94375, -0.32375, 0.0, 0.0, 0.0, 0.04375, 3.0975, -0.51625
25.6485548019, 0.0, 0.0, -0.0, -3.9025, 5.24125, -0.37625, 0.0, 0.0, 0.0, 0.04375, 2.765, -0.28875
25.6992218494, 0.0, 0.0, -0.0, -3.61375, 4.66375, -0.34125, 0.0, 0.0, 0.0, 0.21, 2.59875, -0.69125
25.7497289181, 0.0, 0.0, -0.0, -3.5525, 4.6025, -0.20125, 0.0, 0.0, 0.0, -0.18375, 2.52, -0.35
25.8003778458, 0.0, 0.0, -0.0, -3.85875, 4.62875, -0.14, 0.0, 0.0, 0.0, 0.02625, 2.73875, -0.58625
25.8506100178, 0.0, 0.0, -0.0, -4.025, 4.57625, -0.20125, 0.0, 0.0, 0.0, -0.63, 2.555, -0.6125
25.9008300304, 0.0, 0.0, -0.0, -4.0425, 4.55875, -0.245, 0.0, 0.0, 0.0, 0.06125, 2.31, -0.65625
25.9510807991, 0.0, 0.0, -0.0, -3.885, 4.585, -0.34125, 0.0, 0.0, 0.0, -0.04375, 2.12625, -0.49875
26.0013439655, 0.0, 0.0, -0.0, -3.78875, 4.43625, -0.28875, 0.0, 0.0, 0.0, -0.0875, 2.4675, -0.525
26.0524938107, 0.0, 0.0, -0.0, -3.5875, 4.59375, -0.35875, 0.0, 0.0, 0.0, 0.175, 2.47625, -0.91875
26.102976799, 0.0, 0.0, -0.0, -3.5, 4.96125, -0.21875, 0.0, 0.0, 0.0, 0.315, 2.7475, -0.35
26.1534848213, 0.0, 0.0, -0.0, -3.5525, 4.78625, -0.11375, 0.0, 0.0, 0.0, 0.1575, 3.115, -0.455
26.2036859989, 0.0, 0.0, -0.0, -3.4125, 5.13625, -0.21875, 0.0, 0.0, 0.0, 0.25375, 2.8525, -0.315
26.2539288998, 0.0, 0.0, -0.0, -3.3425, 5.3375, 0.0175, 0.0, 0.0, 0.0, 0.06125, 3.01875, -0.21875
26.3041729927, 0.0, 0.0, -0.0, -3.42125, 5.6, 0.14875, 0.0, 0.0, 0.0, 0.105, 3.31625, 0.0
26.3544538021, 0.0, 0.0, -0.0, -3.14125, 5.6875, 0.2275, 0.0, 0.0, 0.0, 0.34125, 3.36875, -0.11375
26.4047858715, 0.0, 0.0, -0.0, -3.325, 5.69625, 0.2975, 0.0, 0.0, 0.0, 0.14, 3.43, -0.315
26.4552278519, 0.0, 0.0, -0.0, -3.185, 5.66125, 0.2275, 0.0, 0.0, 0.0, 0.105, 3.6925, 0.0875
26.5054728985, 0.0, 0.0, -0.0, -3.3425, 5.69625, 0.0875, 0.0, 0.0, 0.0, 0.35, 3.57875, 0.1225
26.5557219982, 0.0, 0.0, -0.0, -3.38625, 5.45125, 0.04375, 0.0, 0.0, 0.0, 0.245, 3.57, -0.18375
26.6058878899, 0.0, 0.0, -0.0, -3.52625, 5.53, 0.1575, 0.0, 0.0, 0.0, 0.1575, 3.12375, 0.04375
26.6560709476, 0.0, 0.0, -0.0, -3.31625, 5.0575, 0.34125, 0.0, 0.0, 0.0, -0.04375, 3.12375, -0.3325
26.7063410282, 0.0, 0.0, -0.0, -3.3425, 5.03125, 0.20125, 0.0, 0.0, 0.0, 0.04375, 2.66, -0.09625
26.7565529346, 0.0, 0.0, -0.0, -3.64, 4.69, 0.21, 0.0, 0.0, 0.0, 0.41125, 2.51125, -0.0525
26.8069319725, 0.0, 0.0, -0.0, -3.4125, 4.40125, 0.07, 0.0, 0.0, 0.0, 0.23625, 2.0825, 0.09625
26.8573889732, 0.0, 0.0, -0.0, -3.395, 4.40125, 0.53375, 0.0, 0.0, 0.0, -0.48125, 2.275, 0.0
26.9076769352, 0.0, 0.0, -0.0, -3.7975, 4.27875, 0.2975, 0.0, 0.0, 0.0, -0.1575, 1.96, -0.16625
26.9578850269, 0.0, 0.0, -0.0, -4.05125, 3.9725, 0.245, 0.0, 0.0, 0.0, -0.20125, 1.995, 0.2625
27.0080418587, 0.0, 0.0, -0.0, -4.01625, 3.8675, 0.28875, 0.0, 0.0, 0.0, -0.58625, 1.88125, -0.11375
27.058287859, 0.0, 0.0, -0.0, -3.85875, 3.605, 0.49875, 0.0, 0.0, 0.0, -0.37625, 1.63625, 0.02625
27.1085598469, 0.0, 0.0, -0.0, -4.03375, 3.77125, 0.58625, 0.0, 0.0, 0.0, -0.55125, 1.435, -0.18375
27.1590559483, 0.0, 0.0, -0.0, -4.15625, 3.8675, 0.5775, 0.0, 0.0, 0.0, -0.56875, 1.645, 0.07875
27.2093629837, 0.0, 0.0, -0.0, -4.0775, 3.92, 0.60375, 0.0, 0.0, 0.0, -0.4025, 1.47, -0.1575
27.2597978115, 0.0, 0.0, -0.0, -3.99875, 3.89375, 0.455, 0.0, 0.0, 0.0, -0.41125, 1.82, 0.25375
27.3101379871, 0.0, 0.0, -0.0, -3.94625, 3.78, 0.56, 0.0, 0.0, 0.0, -0.1925, 2.03875, 0.39375
27.3603730202, 0.0, 0.0, -0.0, -3.745, 3.8675, 0.525, 0.0, 0.0, 0.0, -0.35875, 1.5575, 0.27125
27.4105570316, 0.0, 0.0, 0.0, -4.025, 4.06, 0.97125, 0.0, 0.0, 0.0, -0.2275, 1.86375, 0.1575
27.460819006, 0.0, 0.0, 0.0, -3.955, 3.78, 0.7875, 0.0, 0.0, 0.0, -0.245, 1.60125, 0.46375
27.5111689568, 0.0, 0.0, -0.0, -3.63125, 3.815, 0.60375, 0.0, 0.0, 0.0, 0.00875, 1.77625, 0.16625
27.5613508224, 0.0, 0.0, 0.0, -3.57875, 3.87625, 0.875, 0.0, 0.0, 0.0, -0.16625, 1.6275, 0.20125
27.6116809845, 0.0, 0.0, 0.0, -3.59625, 3.61375, 0.84875, 0.0, 0.0, 0.0, -0.4725, 1.72375, 0.4375
27.6619260311, 0.0, -0.0, 0.0, -3.885, 3.38625, 0.86625, 0.0, 0.0, 0.0, -0.14, 1.21625, 0.60375
27.7121298313, 0.0, -0.0, 0.0, -3.91125, 3.29875, 0.7875, 0.0, 0.0, 0.0, -0.5425, 1.085, 0.34125
27.7624928951, 0.0, -0.0, 0.0, -4.19125, 3.35125, 0.69125, 0.0, 0.0, 0.0, -0.4725, 0.9975, 0.58625
27.8127088547, 0.0, -0.0, 0.0, -4.235, 3.2025, 0.98875, 0.0, 0.0, 0.0, -0.60375, 0.8225, 0.2625
27.8629729748, 0.0, -0.0, -0.0, -3.8675, 3.12375, 0.735, 0.0, 0.0, 0.0, -0.37625, 1.015, 0.39375
27.9133839607, 0.0, -0.0, 0.0, -3.94625, 3.22875, 0.88375, 0.0, 0.0, 0.0, -0.14875, 0.93625, 0.175
27.9636459351, 0.0, -0.0, 0.0, -4.305, 2.8175, 0.8925, 0.0, 0.0, 0.0, -0.56875, 0.70875, 0.62125
28.0139708519, 0.0, -0.0, 0.0, -4.26125, 2.86125, 1.05875, 0.0, 0.0, 0.0, -0.32375, 0.8225, 0.39375
28.0642018318, 0.0, -0.0, 0.0, -3.89375, 2.94, 0.98, 0.0, 0.0, 0.0, -0.875, 0.48125, 0.46375
28.1143980026, 0.0, -0.0, 0.0, -3.9725, 3.29, 0.6825, 0.0, 0.0, 0.0, -0.455, 0.81375, 0.5075
28.1646049023, 0.0, -0.0, 0.0, -4.1825, 2.9925, 1.12875, 0.0, 0.0, 0.0, -0.665, 0.5775, 0.49
28.2147989273, 0.0, -0.0, 0.0, -3.94625, 2.8525, 1.1025, 0.0, 0.0, 0.0, -0.44625, 0.35875, 0.5425
28.2649898529, 0.0, -0.0, 0.0, -4.27875, 2.8525, 0.9975, 0.0, 0.0, 0.0, -0.49, 0.70875, 0.455
28.3152418137, 0.0, -0.0, 0.0, -4.19125, 2.79125, 1.04125, 0.0, 0.0, 0.0, -0.6475, 0.7, 0.5075
28.3654978275, 0.0, -0.0, 0.0, -4.15625, 2.8175, 0.91, 0.0, 0.0, 0.0, -0.65625, 0.665, 0.5075
28.415763855, 0.0, -0.0, 0.0, -4.01625, 2.8, 0.84, 0.0, 0.0, 0.0, -0.69125, 0.70875, 0.5425
28.4660258293, 0.0, -0.0, 0.0, -3.92, 2.73875, 1.2425, 0.0, 0.0, 0.0, -0.595, 0.69125, 0.74375
28.5162467957, 0.0, -0.0, 0.0, -4.20875, 2.9575, 1.25125, 0.0, 0.0, 0.0, -0.7, 0.77, 0.63875
28.5665140152, 0.0, -0.0, 0.0, -4.0775, 2.79125, 0.98875, 0.0, 0.0, 0.0, -0.76125, 0.93625, 0.70875
28.6169137955, 0.0, -0.0, 0.0, -3.9725, 3.08, 0.9625, 0.0, 0.0, 0.0, -0.5425, 0.7175, 0.6825
28.667083025, 0.0, -0.0, 0.0, -4.1475, 3.07125, 1.07625, 0.0, 0.0, 0.0, -0.39375, 1.18125, 0.41125
28.7172789574, 0.0, 0.0, 0.0, -4.20875, 3.4125, 1.155, 0.0, 0.0, 0.0, -0.175, 0.8925, 0.53375
28.7674498558, 0.0, -0.0, 0.0, -3.955, 3.28125, 1.0675, 0.0, 0.0, 0.0, -0.63875, 1.3125, 0.70875
28.8196718693, 0.0, 0.0, 0.0, -4.165, 3.605, 1.1025, 0.0, 0.0, 0.0, -0.28, 1.25125, 0.7875
28.8698198795, 0.0, 0.0, 0.0, -4.0775, 3.7275, 1.23375, 0.0, 0.0, 0.0, -0.4025, 1.16375, 0.5075
28.919975996, 0.0, 0.0, 0.0, -4.26125, 3.64, 1.00625, 0.0, 0.0, 0.0, -0.2975, 1.19, 0.4725
28.9702379704, 0.0, 0.0, 0.0, -3.80625, 3.40375, 1.28625, 0.0, 0.0, 0.0, -0.48125, 1.47, 0.81375
29.0207009315, 0.0, 0.0, 0.0, -4.10375, 3.71, 1.015, 0.0, 0.0, 0.0, -0.35875, 1.295, 0.595
29.0710639954, 0.0, 0.0, 0.0, -4.375, 3.47375, 0.90125, 0.0, 0.0, 0.0, -0.62125, 1.3125, 0.46375
29.1213479042, 0.0, -0.0, 0.0, -4.40125, 3.19375, 0.98, 0.0, 0.0, 0.0, -0.5425, 1.09375, 0.175
29.1717398167, 0.0, -0.0, 0.0, -4.2525, 3.2025, 0.98875, 0.0, 0.0, 0.0, -0.5425, 1.1725, 0.385
29.2221579552, 0.0, -0.0, 0.0, -4.34, 3.12375, 0.945, 0.0, 0.0, 0.0, -0.805, 0.97125, 0.6475
29.2726008892, 0.0, -0.0, 0.0, -4.22625, 3.0975, 0.98875, 0.0, 0.0, 0.0, -0.6475, 1.015, 0.20125
29.3230819702, 0.0, -0.0, -0.0, -3.89375, 2.70375, 0.76125, 0.0, 0.0, 0.0, -0.525, 0.60375, 0.455
29.3734529018, 0.0, -0.0, 0.0, -4.2525, 2.93125, 0.86625, 0.0, 0.0, 0.0, -0.42, 0.58625, 0.41125
29.4236598015, 0.0, -0.0, 0.0, -4.33125, 3.045, 0.88375, 0.0, 0.0, 0.0, -0.70875, 0.7875, 0.3675
29.4737889767, 0.0, -0.0, 0.0, -4.10375, 2.94, 0.875, 0.0, 0.0, 0.0, -0.72625, 0.81375, 0.49875
29.5240769386, 0.0, -0.0, 0.0, -4.2175, 3.3425, 0.875, 0.0, 0.0, 0.0, -0.4725, 0.84, 0.3675
29.5746159554, 0.0, -0.0, 0.0, -4.06875, 3.21125, 0.98, 0.0, 0.0, 0.0, -0.65625, 0.88375, 0.35875
29.6250789165, 0.0, -0.0, 0.0, -4.375, 3.255, 1.05875, 0.0, 0.0, 0.0, -0.32375, 1.155, 0.39375
29.6755290031, 0.0, -0.0, 0.0, -4.36625, 3.19375, 1.00625, 0.0, 0.0, 0.0, -0.69125, 1.21625, 0.5075
29.7272129059, 0.0, 0.0, 0.0, -4.2525, 3.54375, 0.805, 0.0, 0.0, 0.0, -0.6125, 1.39125, 0.62125
29.7774958611, 0.0, 0.0, 0.0, -4.29625, 3.955, 0.83125, 0.0, 0.0, 0.0, -0.6125, 1.645, 0.65625
29.827644825, 0.0, 0.0, 0.0, -4.36625, 3.7625, 0.86625, 0.0, 0.0, 0.0, -0.62125, 1.58375, 0.69125
29.8777987957, 0.0, 0.0, -0.0, -4.235, 3.9025, 0.77, 0.0, 0.0, 0.0, -0.3325, 1.89875, 0.46375
29.9279630184, 0.0, 0.0, 0.0, -4.20875, 4.52375, 1.02375, 0.0, 0.0, 0.0, -0.385, 1.91625, 0.49
29.9781339169, 0.0, 0.0, 0.0, -3.94625, 4.655, 1.1025, 0.0, 0.0, 0.0, -0.5425, 2.51125, 0.70875
30.0282838345, 0.0, 0.0, 0.0, -3.82375, 4.7075, 0.9975, 0.0, 0.0, 0.0, -0.49875, 2.275, 0.83125
30.0784409046, 0.0, 0.0, 0.0, -3.745, 4.585, 1.085, 0.0, 0.0, 0.0, -0.2975, 2.4325, 0.735
30.1286129951, 0.0, 0.0, 0.0, -3.7975, 5.08375, 1.02375, 0.0, 0.0, 0.0, -0.1225, 2.70375, 0.5775
30.1788258553, 0.0, 0.0, 0.0, -3.85875, 4.9525, 1.02375, 0.0, 0.0, 0.0, -0.245, 2.52, 0.84875
30.2289948463, 0.0, 0.0, 0.0, -3.85875, 4.73375, 1.07625, 0.0, 0.0, 0.0, -0.02625, 2.80875, 0.665
30.2791469097, 0.0, 0.0, 0.0, -3.47375, 4.97875, 1.07625, 0.0, 0.0, 0.0, -0.04375, 2.73, 0.5775
30.3293178082, 0.0, 0.0, 0.0, -3.43, 5.18875, 1.0675, 0.0, 0.0, 0.0, -0.18375, 2.7825, 0.6125
30.3794820309, 0.0, 0.0, 0.0, -3.64, 4.935, 1.2075, 0.0, 0.0, 0.0, 0.07, 2.87875, 0.7525
30.4296178818, 0.0, 0.0, 0.0, -3.64, 5.10125, 1.0325, 0.0, 0.0, 0.0, 0.1225, 2.84375, 0.5775
30.4797828197, 0.0, 0.0, 0.0, -3.49125, 5.18875, 1.28625, 0.0, 0.0, 0.0, -0.0875, 3.12375, 0.7
30.5299320221, 0.0, 0.0, 0.0, -3.6925, 5.18, 1.295, 0.0, 0.0, 0.0, 0.28875, 2.61625, 0.175
30.5801169872, 0.0, 0.0, 0.0, -3.56125, 4.7775, 0.98875, 0.0, 0.0, 0.0, 0.27125, 2.47625, 0.55125
30.6302568913, 0.0, 0.0, 0.0, -3.5175, 4.83, 0.77875, 0.0, 0.0, 0.0, -0.02625, 2.59875, 0.595
30.680385828, 0.0, 0.0, 0.0, -3.605, 4.62875, 1.00625, 0.0, 0.0, 0.0, -0.105, 2.42375, 0.6475
30.7305219173, 0.0, 0.0, 0.0, -3.535, 4.38375, 1.11125, 0.0, 0.0, 0.0, 0.04375, 2.09125, 0.51625
30.7806580067, 0.0, 0.0, 0.0, -3.7975, 4.52375, 0.8925, 0.0, 0.0, 0.0, -0.2275, 2.28375, 0.665
30.8308298588, 0.0, 0.0, 0.0, -3.89375, 4.45375, 0.88375, 0.0, 0.0, 0.0, -0.28, 2.38, 0.4375
30.8809769154, 0.0, 0.0, 0.0, -4.03375, 4.375, 0.93625, 0.0, 0.0, 0.0, -0.3675, 2.0475, 0.53375
30.9311089516, 0.0, 0.0, 0.0, -3.85875, 4.01625, 0.805, 0.0, 0.0, 0.0, -0.32375, 2.07375, 0.7525
30.9812428951, 0.0, 0.0, 0.0, -3.8325, 4.05125, 0.9275, 0.0, 0.0, 0.0, -0.37625, 2.1175, 0.3675
31.0313808918, 0.0, 0.0, 0.0, -3.9025, 4.48, 0.63875, 0.0, 0.0, 0.0, -0.0525, 2.21375, 0.77875
31.0815289021, 0.0, 0.0, 0.0, -4.06875, 4.10375, 1.0325, 0.0, 0.0, 0.0, -0.2275, 1.9425, 0.56875
31.131652832, 0.0, 0.0, 0.0, -3.80625, 4.3575, 1.33875, 0.0, 0.0, 0.0, -0.23625, 2.31875, 0.35875
31.1817848682, 0.0, 0.0, 0.0, -3.94625, 4.66375, 1.12, 0.0, 0.0, 0.0, -0.315, 2.40625, 0.735
31.2319078445, 0.0, 0.0, 0.0, -4.19125, 4.57625, 1.2425, 0.0, 0.0, 0.0, -0.34125, 2.38, 1.0325
31.2820990086, 0.0, 0.0, 0.0, -4.095, 4.78625, 1.2775, 0.0, 0.0, 0.0, -0.455, 2.45875, 0.77875
31.3324148655, 0.0, 0.0, 0.0, -4.13, 4.6725, 1.18125, 0.0, 0.0, 0.0, -0.30625, 2.45, 0.735
31.3826079369, 0.0, 0.0, 0.0, -3.89375, 4.92625, 1.2775, 0.0, 0.0, 0.0, -0.30625, 2.82625, 0.7525
31.4330878258, 0.0, 0.0, 0.0, -4.1825, 5.11, 1.39125, 0.0, 0.0, 0.0, -0.60375, 2.8525, 1.12875
31.483217001, 0.0, 0.0, 0.0, -4.12125, 5.25875, 1.37375, 0.0, 0.0, 0.0, -0.525, 2.9925, 0.91
31.5333848, 0.0, 0.0, 0.0, -4.22625, 5.32875, 1.25125, 0.0, 0.0, 0.0, -0.53375, 2.905, 0.98
31.5836308002, 0.0, 0.0, 0.0, -4.34875, 5.1275, 1.2425, 0.0, 0.0, 0.0, -0.595, 2.9925, 1.23375
31.63408494, 0.0, 0.0, 0.0, -3.91125, 5.31125, 1.47, 0.0, 0.0, 0.0, -0.56, 3.15, 1.07625
31.6842358112, 0.0, 0.0, 0.0, -4.025, 5.25, 1.4525, 0.0, 0.0, 0.0, -0.63, 3.03625, 1.365
31.7343888283, 0.0, 0.0, 0.0, -4.27875, 5.2675, 1.44375, 0.0, 0.0, 0.0, -0.55125, 3.255, 1.505
31.7845549583, 0.0, 0.0, 0.0, -3.8325, 5.25, 1.47875, 0.0, 0.0, 0.0, -0.49, 3.22, 1.295
31.83481884, 0.0, 0.0, 0.0, -3.9725, 5.18, 1.75, 0.0, 0.0, 0.0, -0.5075, 3.17625, 1.05
31.884967804, 0.0, 0.0, 0.0, -3.85, 5.36375, 1.53125, 0.0, 0.0, 0.0, -0.30625, 3.115, 1.09375
31.935136795, 0.0, 0.0, 0.0, -3.77125, 5.1625, 1.68875, 0.0, 0.0, 0.0, -0.16625, 2.8, 1.26
31.9853489399, 0.0, 0.0, 0.0, -3.9025, 5.075, 1.65375, 0.0, 0.0, 0.0, -0.0525, 2.8, 1.37375
32.0355379581, 0.0, 0.0, 0.0, -3.5875, 4.87375, 1.72375, 0.0, 0.0, 0.0, -0.48125, 2.6075, 1.19
32.0857458115, 0.0, 0.0, 0.0, -3.5875, 4.4625, 1.5925, 0.0, 0.0, 0.0, -0.06125, 2.31875, 1.37375
32.1359679699, 0.0, 0.0, 0.0, -3.61375, 4.75125, 1.72375, 0.0, 0.0, 0.0, -0.21875, 2.21375, 1.54875
32.1861708164, 0.0, 0.0, 0.0, -3.605, 4.445, 1.65375, 0.0, 0.0, 0.0, 0.0875, 2.14375, 1.2775
32.2363688946, 0.0, 0.0, 0.0, -3.4825, 4.27875, 1.61875, 0.0, 0.0, 0.0, -0.35875, 2.0475, 1.95125
32.2866008282, 0.0, 0.0, 0.0, -4.41, 4.2, 1.995, 0.0, 0.0, 0.0, -0.77875, 1.89, 2.09125
32.3368749619, 0.0, 0.0, 0.0, -3.675, 4.33125, 1.49625, 0.0, 0.0, 0.0, -2.21375, 2.03875, 1.5925
32.3871538639, 0.0, 0.0, 0.0, -4.20875, 4.38375, 2.0125, 0.0, 0.0, 0.0, -0.5075, 2.09125, 1.47875
32.4373738766, 0.0, 0.0, 0.0, -3.9725, 4.235, 2.03875, 0.0, 0.0, 0.0, -0.7, 2.12625, 1.42625
32.4875679016, 0.0, 0.0, 0.0, -3.75375, 4.43625, 2.26625, 0.0, 0.0, 0.0, 0.09625, 2.275, 1.8725
32.5378479958, 0.0, 0.0, 0.0, -4.4625, 4.13, 2.555, 0.0, 0.0, 0.0, -0.62125, 1.75, 1.86375
32.588121891, 0.0, 0.0, 0.0, -3.8325, 4.36625, 1.925, 0.0, 0.0, 0.0, -0.0875, 2.1525, 1.86375
32.6391818523, 0.0, 0.0, 0.0, -3.675, 4.31375, 2.44125, 0.0, 0.0, 0.0, -0.1225, 1.855, 1.82875
32.689401865, 0.0, 0.0, 0.0, -3.85875, 4.24375, 2.23125, 0.0, 0.0, 0.0, -0.28, 1.61875, 1.9075
32.7395968437, 0.0, 0.0, 0.0, -3.57875, 4.43625, 2.05625, 0.0, 0.0, 0.0, -0.04375, 2.07375, 2.05625
32.7898159027, 0.0, 0.0, 0.0, -3.75375, 4.2875, 2.485, 0.0, 0.0, 0.0, -0.21875, 2.17, 1.82875
32.8399899006, 0.0, 0.0, 0.0, -3.3775, 4.41875, 2.3975, 0.0, 0.0, 0.0, 0.14875, 1.74125, 2.16125
32.8903589249, 0.0, 0.0, 0.0, -3.64, 4.0075, 2.4675, 0.0, 0.0, 0.0, -0.00875, 1.9075, 1.89
32.940598011, 0.0, 0.0, 0.0, -3.465, 4.2525, 2.26625, 0.0, 0.0, 0.0, 0.00875, 1.91625, 2.31875
32.9907870293, 0.0, 0.0, 0.0, -3.73625, 4.2, 2.0125, 0.0, 0.0, 0.0, -0.07875, 1.68875, 1.88125
33.0409669876, 0.0, 0.0, 0.0, -3.59625, 3.885, 2.12625, 0.0, 0.0, 0.0, -0.30625, 1.575, 1.77625
33.0912058353, 0.0, 0.0, 0.0, -3.6575, 3.57, 2.4325, 0.0, 0.0, 0.0, 0.035, 1.21625, 1.93375
33.141381979, 0.0, -0.0, 0.0, -4.06, 3.28125, 2.2925, 0.0, 0.0, 0.0, -0.42875, 0.665, 1.75
33.1916229725, 0.0, -0.0, 0.0, -3.94625, 3.045, 0.0525, 0.0, 0.0, 0.0, -0.34125, 0.5075, 1.65375
33.242027998, 0.0, -0.0, 0.0, -3.5525, 2.93125, 2.31875, 0.0, 0.0, 0.0, -0.525, 0.7875, 1.75
33.2921879292, 0.0, -0.0, 0.0, -3.66625, 2.8875, 2.2225, 0.0, 0.0, 0.0, -0.315, 0.41125, 1.88125
33.3424358368, 0.0, -0.0, 0.0, -3.82375, 2.73875, 2.42375, 0.0, 0.0, 0.0, -0.46375, 0.55125, 1.7675
33.392649889, 0.0, -0.0, 0.0, -3.5875, 2.8525, 2.4325, 0.0, 0.0, 0.0, -0.1575, 0.4375, 1.58375
33.4428608418, 0.0, -0.0, 0.0, -3.77125, 2.73, 2.35375, 0.0, 0.0, 0.0, -0.1225, 0.35875, 1.8025
33.4934248924, 0.0, -0.0, 0.0, -3.68375, 2.625, 2.0475, 0.0, 0.0, 0.0, -0.4025, 0.245, 1.7325
33.5436208248, 0.0, -0.0, 0.0, -4.1125, 2.5725, 1.98625, 0.0, 0.0, 0.0, -0.665, 0.21875, 1.89
33.5937728882, 0.0, -0.0, 0.0, -4.12125, 2.37125, 2.415, 0.0, 0.0, 0.0, -0.6825, 0.20125, 1.855
33.6438729763, 0.0, -0.0, 0.0, -4.12125, 2.66875, 2.1175, 0.0, 0.0, 0.0, -0.56875, 0.1225, 1.225
33.694038868, 0.0, -0.0, 0.0, -3.99, 1.9425, 2.26625, 0.0, 0.0, 0.0, -0.8575, 0.035, 1.68
33.7441978455, 0.0, -0.0, 0.0, -3.7625, 2.205, 2.3975, 0.0, 0.0, 0.0, -0.42875, 0.21875, 2.03875
33.7943439484, 0.0, -0.0, 0.0, -4.12125, 2.51125, 1.98625, 0.0, 0.0, 0.0, -1.05875, 0.1225, 1.5225
33.8445029259, 0.0, -0.0, 0.0, -4.40125, 2.52875, 2.1, 0.0, 0.0, 0.0, -0.8225, 0.42, 1.8375
33.8949458599, 0.0, -0.0, 0.0, -4.4275, 2.59, 2.38, 0.0, 0.0, 0.0, -0.9975, 0.4375, 1.6275
33.9451320171, 0.0, -0.0, 0.0, -4.12125, 2.66, 2.065, 0.0, 0.0, 0.0, -0.84875, 0.35875, 1.5575
33.9953308105, 0.0, -0.0, 0.0, -4.55, 2.94, 2.00375, 0.0, 0.0, 0.0, -0.95375, 0.525, 1.7325
34.0455489159, -0.0, -0.0, 0.0, -5.39875, 2.84375, 1.995, 0.0, 0.0, 0.0, -1.39125, 0.88375, 1.9075
34.0957570076, -0.0, 0.0, 0.0, -5.18, 3.47375, 2.05625, 0.0, 0.0, 0.0, -1.58375, 0.79625, 1.575
34.1459980011, -0.0, -0.0, 0.0, -4.76, 3.33375, 2.1, 0.0, 0.0, 0.0, -1.085, 1.07625, 1.86375
34.1963198185, -0.0, -0.0, 0.0, -5.15375, 3.31625, 1.995, 0.0, 0.0, 0.0, -1.5225, 0.7525, 1.81125
34.2470388412, -0.0, 0.0, 0.0, -4.655, 3.56125, 1.9075, 0.0, 0.0, 0.0, -1.1375, 1.07625, 1.3825
34.2972369194, 0.0, 0.0, 0.0, -4.54125, 3.43875, 2.24, 0.0, 0.0, 0.0, -1.05, 1.1375, 1.855
34.3474879265, 0.0, -0.0, 0.0, -4.40125, 3.29875, 1.75, 0.0, 0.0, 0.0, -1.085, 1.14625, 1.67125
34.3976700306, 0.0, 0.0, 0.0, -4.585, 3.43875, 1.86375, 0.0, 0.0, 0.0, -1.33, 1.435, 1.4
34.4479370117, 0.0, 0.0, 0.0, -4.31375, 3.54375, 1.68875, 0.0, 0.0, 0.0, -0.76125, 1.1725, 1.3125
34.4983739853, 0.0, -0.0, 0.0, -4.29625, 3.24625, 1.855, 0.0, 0.0, 0.0, -1.015, 1.2425, 1.02375
34.5486409664, 0.0, -0.0, 0.0, -4.34, 3.08, 1.645, 0.0, 0.0, 0.0, -0.8225, 0.95375, 1.25125
34.598856926, 0.0, -0.0, 0.0, -4.1475, 3.31625, 1.65375, 0.0, 0.0, 0.0, -0.6475, 0.72625, 0.76125
34.6490240097, 0.0, -0.0, 0.0, -4.29625, 2.93125, 1.54, 0.0, 0.0, 0.0, -0.7175, 0.79625, 0.7525
34.6992778778, 0.0, -0.0, 0.0, -4.305, 2.86125, 1.3475, 0.0, 0.0, 0.0, -0.6125, 0.8575, 1.0325
34.7497639656, 0.0, -0.0, 0.0, -4.13875, 2.96625, 1.44375, 0.0, 0.0, 0.0, -0.21, 0.4725, 0.88375
34.8002049923, 0.0, -0.0, 0.0, -3.92, 2.93125, 1.6975, 0.0, 0.0, 0.0, -0.4025, 0.63, 0.7175
34.8509759903, 0.0, -0.0, 0.0, -3.89375, 3.05375, 1.12, 0.0, 0.0, 0.0, -0.0525, 0.51625, 1.26875
34.9014348984, 0.0, -0.0, 0.0, -3.71875, 2.82625, 1.2775, 0.0, 0.0, 0.0, -0.28, 0.72625, 0.62125
34.9520428181, 0.0, -0.0, 0.0, -3.87625, 2.96625, 1.33, 0.0, 0.0, 0.0, -0.11375, 0.77, 0.91875
35.0029788017, 0.0, -0.0, 0.0, -3.605, 2.82625, 1.33875, 0.0, 0.0, 0.0, -0.65625, 0.6475, 0.4725
35.0531799793, 0.0, -0.0, 0.0, -3.955, 3.00125, 1.14625, 0.0, 0.0, 0.0, -0.30625, 0.49, 0.48125
35.1034638882, 0.0, -0.0, 0.0, -3.70125, 2.975, 0.95375, 0.0, 0.0, 0.0, 0.06125, 0.595, 0.37625
35.1539018154, 0.0, -0.0, 0.0, -3.4825, 2.87875, 1.05875, 0.0, 0.0, 0.0, -0.44625, 0.56, 0.49875
35.2044439316, 0.0, -0.0, 0.0, -3.66625, 2.9225, 1.2425, 0.0, 0.0, 0.0, 0.105, 0.77, 0.6125
35.2550649643, 0.0, -0.0, -0.0, -3.6225, 3.0975, 0.7525, 0.0, 0.0, 0.0, 0.07, 0.735, 0.4725
35.3052318096, 0.0, -0.0, 0.0, -3.5525, 3.05375, 1.05875, 0.0, 0.0, 0.0, 0.105, 0.6825, 0.6125
35.3554298878, 0.0, -0.0, 0.0, -3.8325, 3.22875, 0.93625, 0.0, 0.0, 0.0, 0.02625, 0.97125, 0.25375
35.4056680202, 0.0, -0.0, 0.0, -3.815, 3.185, 0.81375, 0.0, 0.0, 0.0, -0.105, 0.98875, 0.2275
35.4558489323, 0.0, 0.0, 0.0, -4.0075, 3.42125, 0.7175, 0.0, 0.0, 0.0, -0.0875, 0.95375, 0.6125
35.5060329437, 0.0, 0.0, -0.0, -3.7975, 3.56125, 0.53375, 0.0, 0.0, 0.0, -0.30625, 1.51375, 0.28
35.5564508438, 0.0, 0.0, 0.0, -3.89375, 4.31375, 0.8225, 0.0, 0.0, 0.0, -0.21, 1.715, 0.6475
35.6066348553, 0.0, 0.0, 0.0, -3.6575, 3.98125, 0.805, 0.0, 0.0, 0.0, -0.42875, 1.68875, 0.2625
35.6568808556, 0.0, 0.0, 0.0, -3.96375, 4.43625, 0.7875, 0.0, 0.0, 0.0, -0.21, 1.63625, 0.28
35.7070720196, 0.0, 0.0, -0.0, -4.13, 4.6375, 0.53375, 0.0, 0.0, 0.0, -0.5425, 2.19625, 0.1575
35.7573080063, 0.0, 0.0, -0.0, -3.91125, 4.41875, 0.595, 0.0, 0.0, 0.0, -0.2625, 2.72125, 0.25375
35.8076050282, 0.0, 0.0, -0.0, -4.1125, 4.89125, 0.6475, 0.0, 0.0, 0.0, -0.35875, 2.75625, 0.25375
35.8578679562, 0.0, 0.0, -0.0, -4.01625, 4.97, 0.5425, 0.0, 0.0, 0.0, -0.07, 2.70375, 0.34125
35.9081389904, 0.0, 0.0, -0.0, -4.375, 5.15375, 0.69125, 0.0, 0.0, 0.0, -0.53375, 2.38875, 0.18375
35.9583778381, 0.0, 0.0, -0.0, -3.955, 4.97, 0.7, 0.0, 0.0, 0.0, -0.69125, 2.68625, 0.4725
36.0085618496, 0.0, 0.0, -0.0, -4.3225, 4.96125, 0.37625, 0.0, 0.0, 0.0, -0.55125, 2.8175, 0.07
36.0588228703, 0.0, 0.0, -0.0, -4.165, 4.935, 0.42, 0.0, 0.0, 0.0, -0.77, 2.8875, -0.13125
36.1090388298, 0.0, 0.0, -0.0, -4.585, 5.18, 0.34125, 0.0, 0.0, 0.0, -0.63, 2.73875, 0.00875
36.1592140198, 0.0, 0.0, -0.0, -4.3575, 4.6725, 0.455, 0.0, 0.0, 0.0, -0.525, 2.77375, 0.035
36.2093808651, 0.0, 0.0, -0.0, -4.095, 4.59375, 0.315, 0.0, 0.0, 0.0, -0.69125, 2.625, -0.035
36.2596058846, 0.0, 0.0, -0.0, -4.15625, 4.6725, 0.455, 0.0, 0.0, 0.0, -0.69125, 2.40625, 0.18375
36.3098669052, 0.0, 0.0, -0.0, -4.1475, 4.90875, 0.39375, 0.0, 0.0, 0.0, -0.41125, 2.38875, -0.13125
36.3602769375, 0.0, 0.0, -0.0, -4.13, 4.64625, 0.25375, 0.0, 0.0, 0.0, -0.4725, 2.5725, -0.0525
36.4105010033, 0.0, 0.0, -0.0, -3.7975, 4.8125, 0.34125, 0.0, 0.0, 0.0, -0.51625, 2.59, -0.1225
36.4606969357, 0.0, 0.0, -0.0, -3.885, 4.78625, 0.07875, 0.0, 0.0, 0.0, -0.37625, 2.44125, 0.06125
36.5108759403, 0.0, 0.0, -0.0, -3.96375, 4.96125, 0.14, 0.0, 0.0, 0.0, -0.09625, 2.87, -0.0525
36.5610609055, 0.0, 0.0, -0.0, -3.8325, 4.97, 0.13125, 0.0, 0.0, 0.0, 0.09625, 2.625, -0.07875
36.6112718582, 0.0, 0.0, -0.0, -3.68375, 4.76, 0.39375, 0.0, 0.0, 0.0, -0.07875, 2.63375, 0.07875
36.6615388393, 0.0, 0.0, -0.0, -3.5525, 4.865, 0.27125, 0.0, 0.0, 0.0, -0.035, 2.82625, 0.09625
36.7119560242, 0.0, 0.0, -0.0, -3.57, 5.11, 0.3675, 0.0, 0.0, 0.0, -0.1925, 2.84375, 0.04375
36.7622718811, 0.0, 0.0, -0.0, -3.77125, 5.18, 0.28, 0.0, 0.0, 0.0, -0.04375, 3.12375, 0.20125
36.812474966, 0.0, 0.0, -0.0, -3.815, 5.5475, 0.34125, 0.0, 0.0, 0.0, 0.14, 2.835, 0.2975
36.8626918793, 0.0, 0.0, -0.0, -3.68375, 5.46, 0.51625, 0.0, 0.0, 0.0, -0.0175, 2.98375, 0.315
36.9130108356, 0.0, 0.0, -0.0, -3.5525, 5.46, 0.55125, 0.0, 0.0, 0.0, -0.06125, 3.2375, 0.0875
36.9633200169, 0.0, 0.0, -0.0, -3.3775, 5.43375, 0.42875, 0.0, 0.0, 0.0, 0.07, 3.2725, 0.1925
37.0136070251, 0.0, 0.0, -0.0, -3.395, 5.59125, 0.3675, 0.0, 0.0, 0.0, 0.5425, 3.36875, 0.2275
37.0638978481, 0.0, 0.0, -0.0, -3.4125, 5.4775, 0.60375, 0.0, 0.0, 0.0, 0.0175, 3.4125, 0.21875
37.1141018867, 0.0, 0.0, 0.0, -3.40375, 5.55625, 0.58625, 0.0, 0.0, 0.0, -0.09625, 3.43875, 0.49
37.1643309593, 0.0, 0.0, 0.0, -3.54375, 5.74, 0.63, 0.0, 0.0, 0.0, 0.13125, 3.36875, 0.5075
37.2148599625, 0.0, 0.0, -0.0, -3.5525, 5.7925, 0.805, 0.0, 0.0, 0.0, 0.09625, 3.2725, 0.35875
37.2652080059, 0.0, 0.0, -0.0, -3.31625, 5.25, 0.62125, 0.0, 0.0, 0.0, 0.105, 3.24625, 0.4375
37.3154349327, 0.0, 0.0, 0.0, -3.325, 5.18875, 0.9275, 0.0, 0.0, 0.0, 0.11375, 3.22875, 0.60375
37.3656527996, 0.0, 0.0, 0.0, -3.465, 5.425, 0.6475, 0.0, 0.0, 0.0, -0.04375, 3.19375, 0.53375
37.415915966, 0.0, 0.0, 0.0, -3.52625, 5.39, 0.7525, 0.0, 0.0, 0.0, 0.3675, 3.115, 0.6475
37.466149807, 0.0, 0.0, 0.0, -3.49125, 5.355, 0.9625, 0.0, 0.0, 0.0, -0.245, 3.14125, 0.6475
37.5163519382, 0.0, 0.0, 0.0, -3.54375, 5.24125, 0.7175, 0.0, 0.0, 0.0, -2.10875, 3.08, 0.7175
37.5665359497, 0.0, 0.0, 0.0, -3.59625, 5.24125, 0.95375, 0.0, 0.0, 0.0, 0.0525, 3.01875, 0.56875
37.6167449951, 0.0, 0.0, 0.0, -3.66625, 5.005, 1.09375, 0.0, 0.0, 0.0, 0.1575, 2.82625, 0.79625
37.6669750214, 0.0, 0.0, 0.0, -3.7625, 5.17125, 0.95375, 0.0, 0.0, 0.0, -0.11375, 2.54625, 1.02375
37.7171859741, 0.0, 0.0, 0.0, -3.66625, 4.73375, 1.2425, 0.0, 0.0, 0.0, 0.0, 2.3975, 0.7175
37.7673578262, 0.0, 0.0, 0.0, -3.815, 4.7075, 0.98875, 0.0, 0.0, 0.0, -0.385, 2.4675, 0.735
37.8176138401, 0.0, 0.0, 0.0, -3.96375, 4.73375, 1.12875, 0.0, 0.0, 0.0, -0.1925, 2.7475, 1.09375
37.8677999973, 0.0, 0.0, 0.0, -3.99, 4.76875, 1.295, 0.0, 0.0, 0.0, -0.4725, 2.3975, 1.09375
37.9181008339, 0.0, 0.0, 0.0, -4.1125, 4.99625, 1.30375, 0.0, 0.0, 0.0, -0.09625, 2.45, 0.875
37.9685850143, 0.0, 0.0, 0.0, -4.10375, 4.9175, 1.25125, 0.0, 0.0, 0.0, -0.525, 2.4675, 1.04125
38.0188310146, 0.0, 0.0, 0.0, -4.06, 4.8825, 1.11125, 0.0, 0.0, 0.0, -0.21, 2.33625, 0.93625
38.0690028667, 0.0, 0.0, 0.0, -4.13, 4.52375, 1.42625, 0.0, 0.0, 0.0, -0.32375, 2.1525, 1.21625
38.1192028522, 0.0, 0.0, 0.0, -4.33125, 4.585, 1.47, 0.0, 0.0, 0.0, -0.46375, 2.135, 1.295
38.1694118977, 0.0, 0.0, 0.0, -4.26125, 4.6025, 1.435, 0.0, 0.0, 0.0, -0.7525, 2.02125, 1.28625
38.2196629047, 0.0, 0.0, 0.0, -3.7275, 4.08625, 1.65375, 0.0, 0.0, 0.0, -0.385, 1.89, 0.98875
38.2702388763, 0.0, 0.0, 0.0, -3.96375, 4.1475, 1.4, 0.0, 0.0, 0.0, -0.49, 2.05625, 1.42625
38.3207578659, 0.0, 0.0, 0.0, -4.2175, 4.305, 1.56625, 0.0, 0.0, 0.0, -0.6475, 1.5925, 1.39125
38.3709309101, 0.0, 0.0, 0.0, -3.85, 3.75375, 1.75, 0.0, 0.0, 0.0, -0.525, 1.75, 1.155
38.4212219715, 0.0, 0.0, 0.0, -4.15625, 3.87625, 1.88125, 0.0, 0.0, 0.0, -0.76125, 1.46125, 0.84
38.4715428352, 0.0, 0.0, 0.0, -4.1825, 3.6575, 1.6625, 0.0, 0.0, 0.0, -0.97125, 1.295, 1.42625
38.5220479965, 0.0, 0.0, 0.0, -4.2175, 3.5875, 1.5575, 0.0, 0.0, 0.0, -0.39375, 1.25125, 1.12875
38.5725259781, 0.0, -0.0, 0.0, -4.1125, 3.21125, 1.5925, 0.0, 0.0, 0.0, -0.60375, 0.83125, 1.00625
38.6229028702, 0.0, -0.0, 0.0, -4.1475, 3.21125, 1.70625, 0.0, 0.0, 0.0, -0.42875, 0.665, 1.155
38.6731798649, 0.0, -0.0, 0.0, -3.885, 3.33375, 1.68875, 0.0, 0.0, 0.0, -0.6825, 1.1025, 1.33
38.7234640121, 0.0, 0.0, 0.0, -3.82375, 3.42125, 1.86375, 0.0, 0.0, 0.0, -0.42, 0.98, 1.28625
38.7736890316, 0.0, -0.0, 0.0, -4.45375, 3.2725, 1.8725, 0.0, 0.0, 0.0, -0.34125, 0.6825, 1.4525
38.8243279457, 0.0, -0.0, 0.0, -4.06, 3.26375, 2.10875, 0.0, 0.0, 0.0, -0.65625, 0.97125, 1.60125
38.8745789528, 0.0, -0.0, 0.0, -4.13875, 3.33375, 1.91625, 0.0, 0.0, 0.0, -0.42875, 1.0675, 1.67125
38.9248738289, 0.0, 0.0, 0.0, -3.80625, 3.52625, 2.0125, 0.0, 0.0, 0.0, -0.2625, 1.1025, 1.7675
38.9752779007, 0.0, 0.0, 0.0, -3.68375, 3.5525, 2.0475, 0.0, 0.0, 0.0, -0.4375, 1.435, 1.365
39.0254709721, 0.0, 0.0, 0.0, -3.8675, 3.73625, 2.38875, 0.0, 0.0, 0.0, -0.49875, 1.505, 1.75
39.0756440163, 0.0, 0.0, 0.0, -3.64, 3.885, 2.16125, 0.0, 0.0, 0.0, -0.385, 1.6275, 1.4175
39.1258900166, 0.0, 0.0, 0.0, -3.84125, 4.03375, 1.995, 0.0, 0.0, 0.0, -0.35875, 1.79375, 1.6625
39.1760718822, 0.0, 0.0, 0.0, -3.7625, 3.96375, 1.9425, 0.0, 0.0, 0.0, -0.14875, 1.63625, 1.8375
39.226323843, 0.0, 0.0, 0.0, -3.9025, 4.27875, 2.03875, 0.0, 0.0, 0.0, 0.09625, 1.68, 1.68
39.2765388489, 0.0, 0.0, 0.0, -3.5525, 4.0075, 2.31875, 0.0, 0.0, 0.0, -0.46375, 1.68, 1.74125
39.32680583, 0.0, 0.0, 0.0, -4.19125, 4.1475, 4.41875, 0.0, 0.0, 0.0, -0.1575, 1.39125, 1.54
39.3771588802, 0.0, 0.0, 0.0, -3.84125, 3.9375, 2.24875, 0.0, 0.0, 0.0, -0.1575, 1.6275, 2.135
39.4274008274, 0.0, 0.0, 0.0, -3.89375, 3.75375, 2.05625, 0.0, 0.0, 0.0, 0.035, 1.19, 1.89
39.4777128696, 0.0, 0.0, 0.0, -3.61375, 3.73625, 1.9775, 0.0, 0.0, 0.0, -0.20125, 1.05, 2.00375
39.5279989243, 0.0, 0.0, 0.0, -3.89375, 3.45625, 1.925, 0.0, 0.0, 0.0, -0.2625, 0.9625, 1.68875
39.5782208443, 0.0, -0.0, 0.0, -3.9025, 3.325, 1.9775, 0.0, 0.0, 0.0, -0.525, 0.76125, 1.81125
39.6284019947, 0.0, -0.0, 0.0, -3.94625, 2.87, 2.1175, 0.0, 0.0, 0.0, -0.245, 0.58625, 1.47
39.6785469055, 0.0, -0.0, 0.0, -4.06875, 2.975, 2.0825, 0.0, 0.0, 0.0, -0.56875, 0.23625, 1.75
39.7286949158, 0.0, -0.0, 0.0, -4.2525, 2.59875, 1.96, 0.0, 0.0, 0.0, -0.69125, 0.21, 1.37375
39.7788658142, 0.0, 0.0, 0.0, -4.445, 2.38, 1.995, 0.0, 0.0, 0.0, -0.56875, 2.23125, 1.33875
39.8290448189, 0.0, -0.0, 0.0, -4.24375, 2.415, 1.925, 0.0, 0.0, 0.0, -0.48125, -0.11375, 1.1025
39.8792028427, 0.0, -0.0, 0.0, -4.26125, 2.2925, 2.03, 0.0, 0.0, 0.0, -0.63, -0.14875, 1.33
39.9293859005, 0.0, -0.0, 0.0, -4.22625, 2.31, 2.1175, 0.0, 0.0, 0.0, -0.62125, -0.0175, 1.365
39.97960186, 0.0, -0.0, 0.0, -4.27, 2.275, 1.84625, 0.0, 0.0, 0.0, -0.81375, 0.18375, 1.25125
40.0298008919, 0.0, -0.0, 0.0, -4.095, 2.24875, 1.9075, 0.0, 0.0, 0.0, -0.93625, 0.27125, 1.2775
40.0799880028, 0.0, -0.0, 0.0, -4.41, 2.555, 1.8725, 0.0, 0.0, 0.0, -0.88375, 0.28, 1.04125
40.1303038597, 0.0, -0.0, 0.0, -4.33125, 2.59875, 1.75, 0.0, 0.0, 0.0, -1.04125, 0.35, 1.12875
40.1805758476, 0.0, -0.0, 0.0, -4.29625, 2.695, 1.855, 0.0, 0.0, 0.0, -0.735, 0.56875, 1.4525
40.2309839725, 0.0, -0.0, 0.0, -4.515, 2.87, 2.0125, 0.0, 0.0, 0.0, -1.0675, 0.67375, 1.46125
40.2814788818, 0.0, -0.0, 0.0, -4.3925, 2.9925, 1.47, 0.0, 0.0, 0.0, -0.70875, 0.9275, 1.61
40.3319909573, 0.0, -0.0, 0.0, -4.50625, 3.22, 1.91625, 0.0, 0.0, 0.0, -0.81375, 1.0675, 1.26
40.3824899197, 0.0, -0.0, 0.0, -4.27, 3.03625, 1.86375, 0.0, 0.0, 0.0, -1.09375, 1.05, 1.33
40.4329378605, 0.0, -0.0, 0.0, -4.48, 3.35125, 1.72375, 0.0, 0.0, 0.0, -0.76125, 1.2075, 1.295
40.4834189415, 0.0, -0.0, 0.0, -4.5325, 3.08, 1.6975, 0.0, 0.0, 0.0, -0.8575, 0.88375, 1.085
40.5338799953, -0.0, -0.0, 0.0, -4.6725, 3.0625, 1.63625, 0.0, 0.0, 0.0, -1.12, 0.72625, 1.04125
40.5840258598, -0.0, -0.0, 0.0, -4.75125, 3.26375, 1.435, 0.0, 0.0, 0.0, -1.07625, 0.65625, 0.88375
40.6343028545, -0.0, -0.0, 0.0, -4.75125, 2.8175, 1.3825, 0.0, 0.0, 0.0, -1.16375, 0.4375, 0.74375
40.6847758293, 0.0, -0.0, 0.0, -4.48, 2.38, 1.295, 0.0, 0.0, 0.0, -1.05875, 0.035, 0.7
40.7349629402, -0.0, -0.0, 0.0, -4.7425, 2.24, 1.16375, 0.0, 0.0, 0.0, -0.9275, -0.35875, 0.77
40.7852389812, 0.0, -0.0, 0.0, -4.6025, 1.9425, 1.19, 0.0, 0.0, 0.0, -0.9975, -0.63, 0.4725
40.8353998661, -0.0, -0.0, 0.0, -4.8125, 1.89, 1.25125, 0.0, 0.0, 0.0, -0.9625, -0.595, 0.4725
40.8856599331, -0.0, -0.0, 0.0, -4.80375, 1.61, 1.2775, 0.0, 0.0, 0.0, -1.0325, -0.72625, 0.37625
40.936000824, 0.0, -0.0, 0.0, -4.55, 1.6275, 1.07625, 0.0, 0.0, 0.0, -0.8925, -0.875, 0.58625
40.9861698151, 0.0, -0.0, 0.0, -4.5675, 1.5575, 0.86625, 0.0, 0.0, 0.0, -0.7875, -0.83125, 0.385
41.0364089012, 0.0, -0.0, 0.0, -4.305, 2.00375, 1.07625, 0.0, 0.0, 0.0, -0.83125, -0.2975, 0.62125
41.0866320133, 0.0, -0.0, 0.0, -4.3925, 1.91625, 0.77875, 0.0, 0.0, 0.0, -0.98, -0.32375, 0.53375
41.1370019913, 0.0, -0.0, 0.0, -3.99875, 0.18375, 1.0675, 0.0, 0.0, 0.0, -0.62125, -0.175, 0.665
41.187420845, 0.0, -0.0, 0.0, -3.745, 2.7125, 1.14625, 0.0, 0.0, 0.0, -0.56875, 0.4375, 0.63875
41.2385189533, 0.0, -0.0, 0.0, -3.885, 3.15875, 1.225, 0.0, 0.0, 0.0, -0.14875, 0.98875, 0.77875
41.2888119221, 0.0, 0.0, 0.0, -4.01625, 3.6225, 1.225, 0.0, 0.0, 0.0, -0.2275, 1.5925, 1.085
41.3389759064, 0.0, 0.0, 0.0, -3.395, 4.3575, 1.42625, 0.0, 0.0, 0.0, 0.34125, 2.2225, 0.91
41.3892748356, 0.0, 0.0, 0.0, -3.255, 6.30875, 1.715, 0.0, 0.0, 0.0, 0.55125, 3.92, 1.435
41.4397978783, 0.0, 0.0, 0.0, -2.63375, 7.83125, 1.61, 0.0, 0.0, 0.0, 0.9625, 5.145, 1.8375
41.4903028011, 0.0, 0.0, 0.0, -2.065, 10.40375, 1.7675, 0.0, 0.0, 0.0, 1.6275, 8.2775, 2.14375
41.5404758453, 0.0, 0.0, 0.0, -1.39125, 13.02875, 1.855, 0.0, 0.0, 0.0, 2.31, 10.98125, 2.38
41.5906820297, 0.0, 0.0, 0.0, 0.04375, 17.71, 1.98625, 0.0, 0.0, 0.0, 3.92, 15.8375, 2.73
41.6408779621, 0.0, 0.0, 0.0, 1.11125, 23.24875, 1.81125, 0.0, 0.0, 0.0, 5.01375, 21.1575, 3.325
41.691234827, 0.0, 0.0, 0.0, 1.925, 26.97625, 2.10875, 0.0, 0.0, 0.0, 5.81875, 24.7625, 3.43875
41.7415318489, 0.0, 0.0, 0.0, 2.73, 31.15875, 2.58125, 0.0, 0.0, 0.0, 6.9125, 31.325, 3.96375
41.7917358875, 0.0, 0.0, 0.0, 3.19375, 33.8975, 2.91375, 0.0, 0.0, 0.0, 7.28, 31.70125, 4.655
41.8419568539, 0.0, 0.0, 0.0, 3.33375, 34.85125, 3.15, 0.0, 0.0, 0.0, 7.56875, 32.75125, 5.215
41.8921539783, 0.0, 0.0, 0.0, 3.3775, 35.56875, 3.54375, 0.0, 0.0, 0.0, 7.2275, 33.285, 5.1625
41.9423348904, 0.0, 0.0, 0.0, 3.115, 35.81375, 3.45625, 0.0, 0.0, 0.0, 7.11375, 33.20625, 5.6525
41.9925739765, 0.0, 0.0, 0.0, 2.75625, 35.2275, 3.84125, 0.0, 0.0, 0.0, 6.57125, 32.76875, 5.7925
42.0427567959, 0.0, 0.0, 0.0, 1.91625, 34.1425, 3.98125, 0.0, 0.0, 0.0, 5.85375, 31.31625, 5.2325
42.0933189392, 0.0, 0.0, 0.0, 1.42625, 32.57625, 3.64, 0.0, 0.0, 0.0, 5.7575, 29.5225, 5.285
42.1437289715, 0.0, 0.0, 0.0, 0.665, 30.33625, 3.78, 0.0, 0.0, 0.0, 4.40125, 27.76375, 5.43375
42.1942458153, 0.0, 0.0, 0.0, -0.00875, 27.67625, 4.01625, 0.0, 0.0, 0.0, 3.70125, 25.06, 5.20625
42.2446808815, 0.0, 0.0, 0.0, -1.0675, 23.12625, 3.8325, 0.0, 0.0, 0.0, 2.44125, 20.51, 4.73375
42.2950158119, 0.0, 0.0, 0.0, -2.17875, 18.12125, 3.64, 0.0, 0.0, 0.0, 1.225, 15.435, 4.34875
42.3451859951, 0.0, 0.0, 0.0, -3.59625, 13.34375, 3.57, 0.0, 0.0, 0.0, -0.06125, 10.52625, 3.64875
42.3954219818, 0.0, 0.0, 0.0, -4.27, 10.045, 3.5875, 0.0, 0.0, 0.0, -0.805, 7.18375, 3.43
42.4458038807, -0.0, 0.0, 0.0, -5.27625, 5.50375, 3.43875, 0.0, 0.0, 0.0, -1.82875, 2.52, 3.17625
42.4959948063, -0.0, -0.0, 0.0, -5.705, 1.9775, 3.745, 0.0, 0.0, 0.0, -2.68625, -0.7525, 3.045
42.5463318825, -0.0, -0.0, 0.0, -6.475, -1.89, 4.06, 0.0, 0.0, 0.0, -3.26375, -4.865, 2.87875
42.5966959, -0.0, -0.0, 0.0, -6.99125, -4.48, 3.82375, 0.0, 0.0, 0.0, -3.4825, -7.21875, 2.8525
42.64691782, -0.0, -0.0, 0.0, -7.11375, -7.49, 3.78, 0.0, 0.0, 0.0, -3.70125, -10.01, 2.51125
42.697067976, -0.0, -0.0, 0.0, -7.16625, -9.51125, 3.78, 0.0, 0.0, 0.0, -3.85875, -12.0925, 2.44125
42.7473227978, -0.0, -0.0, 0.0, -7.04375, -10.1675, 3.61375, 0.0, 0.0, 0.0, -3.6575, -12.81, 2.38875
42.7975289822, -0.0, -0.0, 0.0, -6.79875, -10.78875, 3.675, 0.0, 0.0, 0.0, -3.325, -13.4925, 2.485
42.8477468491, -0.0, -0.0, 0.0, -6.2125, -10.64, 4.06875, 0.0, 0.0, 0.0, -2.84375, -13.0025, 2.7125
42.8981649876, -0.0, -0.0, 0.0, -5.52125, -10.28125, 2.275, 0.0, 0.0, 0.0, -2.26625, -13.01125, 3.08875
42.9483549595, -0.0, -0.0, 0.0, -4.97875, -9.0475, 4.68125, 0.0, 0.0, 0.0, -1.81125, -11.445, 3.42125
42.9985938072, 0.0, -0.0, 0.0, -4.2175, -7.8225, 5.25875, 0.0, 0.0, 0.0, -0.95375, -10.2375, 3.955
43.0489139557, 0.0, -0.0, 0.0, -3.325, -5.4075, 5.59125, 0.0, 0.0, 0.0, -0.00875, -7.84, 4.40125
43.0990498066, 0.0, -0.0, 0.0, -2.45, -2.82625, 5.81875, 0.0, 0.0, 0.0, 0.97125, -5.53, 5.0225
43.149312973, 0.0, -0.0, 0.0, -1.68, -1.0325, 6.3175, 0.0, 0.0, 0.0, 1.6625, -3.3075, 5.60875
43.1994919777, 0.0, -0.0, 0.0, -0.97125, 2.1175, 6.7025, 0.0, 0.0, 0.0, 2.7475, -0.7525, 5.95
43.2496778965, 0.0, 0.0, 0.0, -0.175, 4.66375, 7.44625, 0.0, 0.0, 0.0, 3.28125, 1.75, 6.99125
43.2999908924, 0.0, 0.0, 0.0, 0.34125, 6.39625, 7.79625, 0.0, 0.0, 0.0, 3.85875, 3.47375, 7.51625
43.3502349854, 0.0, 0.0, 0.0, 0.44625, 8.68, 8.085, 0.0, 0.0, 0.0, 4.095, 5.45125, 8.23375
43.4004359245, 0.0, 0.0, 0.0, 0.7, 10.50875, 8.81125, 0.0, 0.0, 0.0, 4.3925, 7.5075, 8.67125
43.4506928921, 0.0, 0.0, 0.0, 0.81375, 11.445, 9.135, 0.0, 0.0, 0.0, 4.305, 8.645, 9.23125
43.5009768009, 0.0, 0.0, 0.0, 0.83125, 12.38125, 9.555, 0.0, 0.0, 0.0, 4.43625, 9.54625, 10.03625
43.551678896, 0.0, 0.0, 0.0, 0.77, 12.8275, 9.8525, 0.0, 0.0, 0.0, 4.2175, 9.835, 9.96625
43.6023068428, 0.0, 0.0, 0.0, -0.035, 11.99625, 10.01, 0.0, 0.0, 0.0, 3.3775, 9.1875, 9.9925
43.6526539326, 0.0, 0.0, 0.0, -0.3325, 11.655, 9.86125, 0.0, 0.0, 0.0, 3.28125, 8.4525, 10.01875
43.7028999329, 0.0, 0.0, 0.0, -1.26, 10.28125, 10.19375, 0.0, 0.0, 0.0, 2.59875, 6.90375, 9.87875
43.7532279491, 0.0, 0.0, 0.0, -1.44375, 8.645, 9.975, 0.0, 0.0, 0.0, 1.77625, 5.43375, 9.975
43.803385973, 0.0, 0.0, 0.0, -2.6425, 6.37875, 10.2725, 0.0, 0.0, 0.0, 0.91, 3.24625, 9.91375
43.8535330296, 0.0, 0.0, 0.0, -3.15, 4.48875, 10.1325, 0.0, 0.0, 0.0, -0.13125, 1.47875, 9.45875
43.9037098885, 0.0, -0.0, 0.0, -4.025, 2.5025, 10.0975, 0.0, 0.0, 0.0, -0.67375, -0.6125, 9.2925
43.9539759159, 0.0, -0.0, 0.0, -4.41, 1.00625, 9.9575, 0.0, 0.0, 0.0, -1.1025, -2.10875, 9.065
44.0042638779, -0.0, -0.0, 0.0, -4.68125, -0.70875, 9.77375, 0.0, 0.0, 0.0, -1.44375, -4.01625, 9.205
44.0544929504, -0.0, -0.0, 0.0, -5.01375, -1.75, 9.5025, 0.0, 0.0, 0.0, -1.8025, -4.725, 8.7325
44.1047019958, -0.0, -0.0, 0.0, -5.01375, -2.89625, 9.33625, 0.0, 0.0, 0.0, -1.70625, -6.02, 8.37375
44.1548428535, -0.0, -0.0, 0.0, -5.3725, -3.78, 9.2225, 0.0, 0.0, 0.0, -1.82875, -6.95625, 8.33
44.2051229477, -0.0, -0.0, 0.0, -5.25, -4.24375, 9.26625, 0.0, 0.0, 0.0, -2.02125, -7.35, 7.9625
44.2554290295, -0.0, -0.0, 0.0, -5.32875, -4.83, 9.3275, 0.0, 0.0, 0.0, -2.09125, -7.6125, 7.95375
44.3056118488, -0.0, -0.0, 0.0, -5.15375, -5.0575, 9.2225, 0.0, 0.0, 0.0, -1.96, -8.2775, 8.30375
44.3559257984, -0.0, -0.0, 0.0, -5.075, -5.4775, 9.58125, 0.0, 0.0, 0.0, -2.10875, -8.65375, 7.9975
44.4062538147, -0.0, -0.0, 0.0, -4.73375, -5.1275, 9.56375, 0.0, 0.0, 0.0, -1.30375, -8.015, 8.225
44.4564929008, 0.0, -0.0, 0.0, -4.3575, -4.73375, 9.49375, 0.0, 0.0, 0.0, -0.9625, -7.8925, 8.16375
44.50680089, 0.0, -0.0, 0.0, -3.38625, -2.93125, 8.93375, 0.0, 0.0, 0.0, -0.1575, -5.775, 8.12
44.5569708347, 0.0, -0.0, 0.0, -2.3975, -0.32375, 9.16125, 0.0, 0.0, 0.0, 1.00625, -2.59, 8.33
44.6072258949, 0.0, -0.0, 0.0, -1.575, 2.205, 8.8725, 0.0, 0.0, 0.0, 1.96, -0.65625, 8.505
44.6575520039, 0.0, 0.0, 0.0, -0.41125, 6.0375, 8.9425, 0.0, 0.0, 0.0, 3.36, 3.255, 8.30375
44.7077410221, 0.0, 0.0, 0.0, 0.67375, 8.82875, 8.68875, 0.0, 0.0, 0.0, 3.955, 6.23, 8.7325
44.7579958439, 0.0, 0.0, 0.0, 1.33875, 12.34625, 8.6275, 0.0, 0.0, 0.0, 5.32, 9.31875, 9.1525
44.8081898689, 0.0, 0.0, 0.0, 2.7125, 16.28375, 8.82, 0.0, 0.0, 0.0, 6.23875, 13.48375, 8.89875
44.8583438396, 0.0, 0.0, 0.0, 3.43875, 18.27, 9.19625, 0.0, 0.0, 0.0, 6.8075, 15.3825, 9.02125
44.9085268974, 0.0, 0.0, 0.0, 3.5525, 20.04625, 8.6975, 0.0, 0.0, 0.0, 7.28, 17.21125, 9.52
44.9586668015, 0.0, 0.0, 0.0, 3.3775, 21.86625, 8.61, 0.0, 0.0, 0.0, 7.3675, 19.18875, 9.17875
45.008838892, 0.0, 0.0, 0.0, 3.5875, 22.12, 8.33875, 0.0, 0.0, 0.0, 7.105, 19.2675, 9.03875
45.0589950085, 0.0, 0.0, 0.0, 3.01, 21.245, 8.07625, 0.0, 0.0, 0.0, 6.755, 18.40125, 8.82
45.1092159748, 0.0, 0.0, 0.0, 2.5375, 19.0925, 7.83125, 0.0, 0.0, 0.0, 5.94125, 16.275, 8.49625
45.1594088078, 0.0, 0.0, 0.0, 1.3825, 17.47375, 7.48125, 0.0, 0.0, 0.0, 5.38125, 14.2275, 8.30375
45.2096970081, 0.0, 0.0, 0.0, 0.175, 15.02375, 7.39375, 0.0, 0.0, 0.0, 3.8325, 11.89125, 7.69125
45.2602000237, 0.0, 0.0, 0.0, -0.70875, 12.94125, 7.4375, 0.0, 0.0, 0.0, 2.70375, 9.7475, 7.5775
45.3104228973, 0.0, 0.0, 0.0, -1.9425, 9.5725, 7.245, 0.0, 0.0, 0.0, 1.6625, 6.7025, 7.13125
45.3606598377, 0.0, 0.0, 0.0, -2.61625, 6.08125, 7.06125, 0.0, 0.0, 0.0, 0.7875, 3.12375, 6.5975
45.4111399651, 0.0, 0.0, 0.0, -2.10875, 3.77125, 6.4925, 0.0, 0.0, 0.0, 0.91, 0.805, 5.81875
45.4614729881, 0.0, -0.0, 0.0, -2.5725, 1.05, 6.55375, 0.0, 0.0, 0.0, 0.74375, -1.5925, 5.88
45.5116999149, -0.0, -0.0, 0.0, -5.03125, -1.2075, 6.30875, 0.0, 0.0, 0.0, -1.88125, -3.96375, 5.495
45.5621008873, -0.0, -0.0, 0.0, -5.59125, -2.12625, 6.53625, 0.0, 0.0, 0.0, -2.52875, -5.03125, 5.32
45.6122839451, -0.0, -0.0, 0.0, -6.9825, -3.71, 6.11625, 0.0, 0.0, 0.0, -3.84125, -6.615, 5.17125
45.662446022, -0.0, -0.0, 0.0, -7.74375, -4.445, 6.22125, 0.0, 0.0, 0.0, -4.235, -7.2975, 4.50625
45.7126588821, -0.0, -0.0, 0.0, -7.46375, -3.9025, 6.4225, 0.0, 0.0, 0.0, -4.15625, -6.81625, 4.61125
45.7629590034, -0.0, -0.0, 0.0, -7.42, -3.9725, 6.02875, 0.0, 0.0, 0.0, -3.5875, -6.4575, 4.83875
45.8131268024, -0.0, -0.0, 0.0, -6.125, -4.375, 5.52125, 0.0, 0.0, 0.0, -2.72125, -5.0575, 4.83875
45.8633430004, -0.0, -0.0, 0.0, -4.69, -0.13125, 5.46875, 0.0, 0.0, 0.0, -2.05625, -3.14125, 5.10125
45.9135248661, -0.0, -0.0, 0.0, -4.8475, 1.225, 5.55625, 0.0, 0.0, 0.0, -1.35625, -1.30375, 4.9875
45.9636888504, 0.0, -0.0, 0.0, -4.10375, 3.325, 6.09875, 0.0, 0.0, 0.0, -0.69125, 1.11125, 5.075
46.0139148235, 0.0, 0.0, 0.0, -3.01875, 6.67625, 5.215, 0.0, 0.0, 0.0, 0.30625, 4.375, 5.4425
46.0650320053, 0.0, 0.0, 0.0, -0.525, 10.01875, 5.1625, 0.0, 0.0, 0.0, 2.73875, 7.455, 4.90875
46.1166620255, 0.0, 0.0, 0.0, -2.45875, 12.0225, 5.13625, 0.0, 0.0, 0.0, 1.925, 9.38875, 5.34625
46.1668999195, 0.0, 0.0, 0.0, 0.04375, 14.0875, 5.0925, 0.0, 0.0, 0.0, 3.64, 11.80375, 5.0575
46.2171239853, 0.0, 0.0, 0.0, 0.98, 15.9425, 4.34875, 0.0, 0.0, 0.0, 4.47125, 13.615, 5.22375
46.2674119473, 0.0, 0.0, 0.0, 0.735, 17.00125, 4.6375, 0.0, 0.0, 0.0, 3.7275, 14.595, 5.38125
46.3178839684, 0.0, 0.0, 0.0, 1.645, 18.515, 4.12125, 0.0, 0.0, 0.0, 5.3025, 13.44875, 5.1625
46.3681209087, 0.0, 0.0, 0.0, 1.2425, 19.2325, 4.45375, 0.0, 0.0, 0.0, 4.305, 16.73875, 4.34
46.4183459282, 0.0, 0.0, 0.0, 2.7125, 20.58, 3.8325, 0.0, 0.0, 0.0, 6.685, 18.3925, 4.4975
46.4685590267, 0.0, 0.0, 0.0, 2.8, 22.96, 3.35125, 0.0, 0.0, 0.0, 7.525, 20.36125, 2.2575
46.5187549591, 0.0, 0.0, 0.0, 3.89375, 23.61625, 3.40375, 0.0, 0.0, 0.0, 7.91, 20.99125, 4.03375
46.5690557957, 0.0, 0.0, 0.0, 3.91125, 23.03, 3.21125, 0.0, 0.0, 0.0, 7.9975, 20.4225, 4.17375
46.619189024, 0.0, 0.0, 0.0, 3.59625, 21.84, 2.89625, 0.0, 0.0, 0.0, 7.3325, 19.53, 3.9025
46.6694209576, 0.0, 0.0, 0.0, 3.96375, 21.3675, 3.00125, 0.0, 0.0, 0.0, 7.7, 18.75125, 3.64
46.7196028233, 0.0, 0.0, 0.0, 3.10625, 19.9675, 2.96625, 0.0, 0.0, 0.0, 7.315, 17.42125, 3.35125
46.7698659897, 0.0, 0.0, 0.0, 2.94875, 19.53, 3.01, 0.0, 0.0, 0.0, 8.19, 17.0975, 3.10625
46.8202748299, 0.0, 0.0, 0.0, 3.00125, 18.92625, 2.24, 0.0, 0.0, 0.0, 6.65875, 15.89875, 3.68375
46.870456934, 0.0, 0.0, 0.0, 2.44125, 16.10875, 2.59, 0.0, 0.0, 0.0, 6.43125, 12.6, 3.0275
46.9207458496, 0.0, 0.0, 0.0, 0.55125, 11.305, 2.8, 0.0, 0.0, 0.0, 4.59375, 8.3825, 2.65125
46.9709858894, 0.0, 0.0, 0.0, -0.9625, 5.10125, 2.40625, 0.0, 0.0, 0.0, 2.345, 1.93375, 1.7325
47.0211398602, 0.0, -0.0, 0.0, -3.36875, 0.35875, 2.2575, 0.0, 0.0, 0.0, 0.16625, -2.17, 1.32125
47.0719659328, -0.0, -0.0, 0.0, -5.57375, -5.97625, 2.37125, 0.0, 0.0, 0.0, -1.75, -8.715, 1.04125
47.1221690178, -0.0, -0.0, 0.0, -7.8925, -12.45125, 2.3625, 0.0, 0.0, 0.0, -4.12125, -15.32125, 0.51625
47.1723678112, -0.0, -0.0, 0.0, -8.8725, -16.75625, 1.6975, 0.0, 0.0, 0.0, -5.71375, -19.425, 0.37625
47.222591877, -0.0, -0.0, 0.0, -10.9025, -22.5225, 1.61875, 0.0, 0.0, 0.0, -7.7, -25.92625, -0.67375
47.2733609676, -0.0, -0.0, 0.0, -11.305, -26.34625, 1.8375, 0.0, 0.0, 0.0, -8.54875, -29.3475, -0.83125
47.3237948418, -0.0, -0.0, 0.0, -12.92375, -30.5375, 1.91625, 0.0, 0.0, 0.0, -10.43875, -32.83875, -0.7875
47.3743338585, -0.0, -0.0, 0.0, -13.3175, -33.24125, 1.8725, 0.0, 0.0, 0.0, -10.9725, -36.12, -1.0325
47.4247789383, -0.0, -0.0, 0.0, -13.825, -34.95625, 1.68875, 0.0, 0.0, 0.0, -10.9725, -37.44125, -1.61875
47.4750189781, -0.0, -0.0, 0.0, -13.53625, -35.91875, 2.1175, 0.0, 0.0, 0.0, -10.675, -38.29, -1.12875
47.5252578259, -0.0, -0.0, 0.0, -13.3, -34.83375, 2.2575, 0.0, 0.0, 0.0, -11.2525, -36.56625, -0.95375
47.5755720139, -0.0, -0.0, 0.0, -13.1775, -32.97875, 2.02125, 0.0, 0.0, 0.0, -10.1325, -34.9825, -0.46375
47.6257789135, -0.0, -0.0, 0.0, -11.75125, -28.74375, 2.625, 0.0, 0.0, 0.0, -9.16125, -30.5725, 0.2625
47.6759300232, -0.0, -0.0, 0.0, -9.8525, -23.31, 2.8, 0.0, 0.0, 0.0, -7.07875, -25.80375, 0.44625
47.7261908054, -0.0, -0.0, 0.0, -9.12625, -20.27375, 2.8525, 0.0, 0.0, 0.0, -6.1075, -22.35625, 0.735
47.7766618729, -0.0, -0.0, 0.0, -7.97125, -16.02125, 2.40625, 0.0, 0.0, 0.0, -6.16875, -18.27, 1.19875
47.8267979622, -0.0, -0.0, 0.0, -7.49, -12.71375, 2.87875, 0.0, 0.0, 0.0, -4.08625, -15.21625, 1.0325
47.8770070076, -0.0, -0.0, 0.0, -6.20375, -10.6225, 2.5025, 0.0, 0.0, 0.0, -2.54625, -13.16875, 1.35625
47.9273760319, -0.0, -0.0, 0.0, -5.4775, -6.93875, 2.79125, 0.0, 0.0, 0.0, -1.785, -8.77625, 1.54
47.9782919884, -0.0, -0.0, 0.0, -4.97875, -3.885, 2.82625, 0.0, 0.0, 0.0, -1.44375, -4.33125, 2.0475
48.0301969051, 0.0, -0.0, 0.0, -4.01625, 1.35625, 3.43, 0.0, 0.0, 0.0, 0.07, -0.6825, 2.42375
48.0805518627, 0.0, 0.0, 0.0, -2.7125, 6.5275, 3.08, 0.0, 0.0, 0.0, 1.21625, 4.13875, 2.89625
48.1309709549, 0.0, 0.0, 0.0, -1.74125, 9.70375, 3.045, 0.0, 0.0, 0.0, 2.135, 7.4725, 3.0975
48.1811408997, 0.0, 0.0, 0.0, 0.02625, 15.88125, 2.7825, 0.0, 0.0, 0.0, 3.77125, 13.85125, 3.45625
48.2313938141, 0.0, 0.0, 0.0, 0.35875, 19.24125, 2.94875, 0.0, 0.0, 0.0, 3.9375, 17.395, 4.10375
48.2817649841, 0.0, 0.0, 0.0, 1.75875, 22.435, 2.8175, 0.0, 0.0, 0.0, 5.5475, 20.02875, 4.10375
48.3320248127, 0.0, 0.0, 0.0, 2.37125, 24.26375, 3.28125, 0.0, 0.0, 0.0, 5.92375, 21.5425, 4.2
48.3823668957, 0.0, 0.0, 0.0, 4.2875, 24.80625, 2.98375, 0.0, 0.0, 0.0, 6.4575, 22.11125, 4.03375
48.4325628281, 0.0, 0.0, 0.0, 2.02125, 25.1125, 2.80875, 0.0, 0.0, 0.0, 5.87125, 22.3475, 4.12125
48.4828379154, 0.0, 0.0, 0.0, 1.63625, 24.91125, 2.73875, 0.0, 0.0, 0.0, 6.1775, 22.49625, 3.8675
48.5333340168, 0.0, 0.0, 0.0, 1.68, 24.89375, 2.73875, 0.0, 0.0, 0.0, 5.565, 22.33875, 3.71875
48.5835278034, 0.0, 0.0, 0.0, 1.60125, 24.87625, 2.73, 0.0, 0.0, 0.0, 5.67, 22.4175, 3.68375
48.6337850094, 0.0, 0.0, 0.0, 1.11125, 24.19375, 2.31875, 0.0, 0.0, 0.0, 5.1975, 21.4025, 3.52625
48.684158802, 0.0, 0.0, 0.0, 0.315, 20.3, 2.45, 0.0, 0.0, 0.0, 4.41875, 19.3725, 3.40375
48.7346818447, 0.0, 0.0, 0.0, -1.02375, 17.745, 2.35375, 0.0, 0.0, 0.0, 2.8, 14.735, 2.8525
48.7849400043, 0.0, 0.0, 0.0, -2.3625, 12.565, 2.205, 0.0, 0.0, 0.0, 1.12875, 9.86125, 2.26625
48.8351500034, 0.0, 0.0, 0.0, -3.64, 8.95125, 1.9075, 0.0, 0.0, 0.0, -0.00875, 5.775, 1.925
48.8853549957, -0.0, -0.0, 0.0, -5.10125, 3.0625, 1.72375, 0.0, 0.0, 0.0, -1.63625, 0.3675, 1.2425
48.9355289936, -0.0, -0.0, 0.0, -6.23, -0.7, 1.84625, 0.0, 0.0, 0.0, -2.73875, -3.325, 0.8575
48.9857158661, -0.0, -0.0, 0.0, -7.945, -6.34375, 1.68, 0.0, 0.0, 0.0, -4.7775, -9.31, 0.27125
49.0359458923, -0.0, -0.0, 0.0, -9.10875, -11.8475, 1.54, 0.0, 0.0, 0.0, -5.78375, -14.67375, -0.27125
49.0861608982, -0.0, -0.0, 0.0, -9.77375, -15.1725, 1.30375, 0.0, 0.0, 0.0, -6.8425, -17.535, -0.455
49.1364548206, -0.0, -0.0, 0.0, -10.75375, -19.355, 1.155, 0.0, 0.0, 0.0, -7.84, -21.63875, -1.155
49.1882779598, -0.0, -0.0, 0.0, -11.54125, -22.5225, 1.00625, 0.0, 0.0, 0.0, -8.26875, -25.235, -1.04125
49.2386558056, -0.0, -0.0, 0.0, -11.8825, -24.5175, 1.11125, 0.0, 0.0, 0.0, -8.81125, -26.88, -1.1375
49.2889988422, -0.0, -0.0, 0.0, -11.75125, -26.24125, 1.05875, 0.0, 0.0, 0.0, -8.58375, -28.39375, -1.5225
49.339138031, -0.0, -0.0, -0.0, -11.06, -25.33125, 0.76125, 0.0, 0.0, 0.0, -7.9625, -27.8425, -1.8375
49.3894979954, -0.0, -0.0, 0.0, -10.2725, -23.23125, 0.91875, 0.0, 0.0, 0.0, -7.20125, -25.71625, -1.365
49.4396469593, -0.0, -0.0, 0.0, -8.60125, -18.55875, 1.04125, 0.0, 0.0, 0.0, -5.20625, -20.44875, -0.98875
49.48980093, -0.0, -0.0, 0.0, -6.74625, -14.1575, 0.7875, 0.0, 0.0, 0.0, -3.2375, -16.0825, -0.72625
49.5400359631, 0.0, -0.0, -0.0, -4.3575, -6.51, 0.7525, 0.0, 0.0, 0.0, -0.77, -8.295, -0.41125
49.5903768539, 0.0, -0.0, -0.0, -2.42375, -1.4175, 0.4725, 0.0, 0.0, 0.0, 1.11125, -3.10625, -0.27125
49.640545845, 0.0, 0.0, -0.0, 0.13125, 6.30875, 0.42875, 0.0, 0.0, 0.0, 3.82375, 4.78625, 0.1225
49.6906909943, 0.0, 0.0, 0.0, 2.345, 14.735, 0.1925, 0.0, 0.0, 0.0, 6.4925, 12.95875, 0.7525
49.7408750057, 0.0, 0.0, 0.0, 3.75375, 19.6175, 0.51625, 0.0, 0.0, 0.0, 7.83125, 18.0075, 1.37375
49.7911329269, 0.0, 0.0, 0.0, 5.18, 26.48625, 0.7875, 0.0, 0.0, 0.0, 9.3625, 24.71875, 2.02125
49.8416619301, 0.0, 0.0, 0.0, 5.59125, 30.2575, 1.12, 0.0, 0.0, 0.0, 10.0275, 27.83375, 2.625
49.8931770325, 0.0, 0.0, 0.0, 4.8475, 29.5575, 0.77875, 0.0, 0.0, 0.0, 8.785, 26.71375, 2.40625
49.9434189796, 0.0, 0.0, 0.0, 2.42375, 25.22625, 1.09375, 0.0, 0.0, 0.0, 6.57125, 22.2425, 2.415
49.9937508106, 0.0, 0.0, 0.0, 0.9275, 19.46875, 0.805, 0.0, 0.0, 0.0, 4.865, 16.835, 1.4175
50.043956995, 0.0, 0.0, 0.0, -0.56875, 15.61, 0.72625, 0.0, 0.0, 0.0, 3.08875, 12.8975, 1.37375
50.0942659378, 0.0, 0.0, -0.0, -3.0275, 9.5375, 0.665, 0.0, 0.0, 0.0, 0.32375, 6.79, 0.4375
50.144671917, -0.0, 0.0, -0.0, -5.13625, 4.3225, 0.2625, 0.0, 0.0, 0.0, -1.58375, 1.505, -0.04375
50.1949129105, -0.0, -0.0, -0.0, -6.125, 0.90125, 0.23625, 0.0, 0.0, 0.0, -2.905, -1.61, -0.49
50.2451629639, -0.0, -0.0, -0.0, -7.69125, -4.15625, 0.105, 0.0, 0.0, 0.0, -4.305, -6.51, -0.70875
50.2954919338, -0.0, -0.0, -0.0, -8.47, -7.105, 0.2275, 0.0, 0.0, 0.0, -5.67, -9.24, -1.1025
50.3456690311, -0.0, -0.0, -0.0, -10.3075, -10.57875, 0.0175, 0.0, 0.0, 0.0, -6.9475, -12.775, -1.0675
50.3958618641, -0.0, -0.0, -0.0, -10.9025, -13.545, 0.2975, 0.0, 0.0, 0.0, -8.00625, -17.71875, -1.51375
50.4462828636, -0.0, -0.0, -0.0, -11.43625, -14.98, 0.42875, 0.0, 0.0, 0.0, -8.295, -17.43875, -1.715
50.4978299141, -0.0, -0.0, -0.0, -11.78625, -17.115, 0.32375, 0.0, 0.0, 0.0, -8.42625, -19.55625, -1.995
50.5484929085, -0.0, -0.0, -0.0, -12.005, -18.26125, -0.04375, 0.0, 0.0, 0.0, -8.6275, -20.685, -2.23125
50.5989170074, -0.0, -0.0, -0.0, -11.85625, -19.99375, -0.30625, 0.0, 0.0, 0.0, -8.61875, -22.23375, -2.51125
50.6492078304, -0.0, -0.0, -0.0, -11.795, -20.93, -0.41125, 0.0, 0.0, 0.0, -8.82, -22.995, -2.2225
50.6993718147, -0.0, -0.0, -0.0, -11.20875, -21.455, -0.28875, 0.0, 0.0, 0.0, -8.21625, -23.33625, -2.38
50.7495868206, -0.0, -0.0, -0.0, -11.22625, -21.41125, -0.27125, 0.0, 0.0, 0.0, -7.95375, -23.70375, -2.56375
50.7999498844, -0.0, -0.0, -0.0, -10.84125, -21.1575, -0.39375, 0.0, 0.0, 0.0, -7.42875, -23.275, -2.59875
50.8501148224, -0.0, -0.0, -0.0, -10.28125, -20.41375, -0.49875, 0.0, 0.0, 0.0, -7.48125, -22.2075, -2.59875
50.9002859592, -0.0, -0.0, -0.0, -9.73875, -19.6875, -0.44625, 0.0, 0.0, 0.0, -6.685, -21.56875, -2.415
50.9504439831, -0.0, -0.0, -0.0, -9.695, -18.69, -0.42875, 0.0, 0.0, 0.0, -6.30875, -20.965, -2.5375
51.0006079674, -0.0, -0.0, -0.0, -9.0475, -17.395, -0.55125, 0.0, 0.0, 0.0, -5.67875, -19.92375, -2.07375
51.0507469177, -0.0, -0.0, -0.0, -8.61, -16.835, -0.28875, 0.0, 0.0, 0.0, -5.13625, -18.6725, -2.30125
51.100910902, -0.0, -0.0, -0.0, -7.88375, -15.0325, -0.315, 0.0, 0.0, 0.0, -4.585, -16.96625, -2.1
51.1511278152, -0.0, -0.0, -0.0, -7.44625, -13.83375, -0.42875, 0.0, 0.0, 0.0, -4.05125, -15.84625, -2.07375
51.2016530037, -0.0, -0.0, -0.0, -6.4925, -11.0775, -0.28875, 0.0, 0.0, 0.0, -3.26375, -13.18625, -1.9075
51.2521538734, -0.0, -0.0, -0.0, -6.02, -9.05625, -0.42, 0.0, 0.0, 0.0, -2.5375, -11.20875, -1.575
51.3028619289, -0.0, -0.0, -0.0, -5.25875, -5.775, -0.35, 0.0, 0.0, 0.0, -1.9425, -7.37625, -1.30375
51.3534948826, 0.0, -0.0, -0.0, -4.20875, -1.8375, 0.07, 0.0, 0.0, 0.0, -0.51625, -3.99, -0.8925
51.4041178226, 0.0, -0.0, -0.0, -3.5875, 0.58625, 0.035, 0.0, 0.0, 0.0, 0.0175, -1.25125, -0.46375
51.4542939663, 0.0, 0.0, -0.0, -2.905, 4.10375, 0.0875, 0.0, 0.0, 0.0, 0.5775, 2.415, -0.09625
51.5046288967, 0.0, 0.0, -0.0, -2.275, 6.265, 0.35, 0.0, 0.0, 0.0, 1.68875, 6.69375, -0.00875
51.5552079678, 0.0, 0.0, -0.0, -1.33, 9.975, 0.2275, 0.0, 0.0, 0.0, 2.2575, 7.97125, 0.315
51.6056280136, 0.0, 0.0, -0.0, -0.51625, 13.41375, 0.34125, 0.0, 0.0, 0.0, 3.605, 11.48, 0.4375
51.6560409069, 0.0, 0.0, 0.0, -0.1925, 15.7675, 0.34125, 0.0, 0.0, 0.0, 3.59625, 13.7725, 0.81375
51.706455946, 0.0, 0.0, 0.0, 0.48125, 18.7775, 0.48125, 0.0, 0.0, 0.0, 4.48, 17.08, 1.0325
51.7566618919, 0.0, 0.0, 0.0, 0.95375, 21.9275, 0.51625, 0.0, 0.0, 0.0, 5.24125, 20.02875, 1.42625
51.8070168495, 0.0, 0.0, 0.0, 1.26875, 24.185, 0.84, 0.0, 0.0, 0.0, 5.25875, 21.91, 1.54
51.8572049141, 0.0, 0.0, 0.0, 4.45375, 26.62625, 0.67375, 0.0, 0.0, 0.0, 6.37875, 24.61375, 1.88125
51.9073858261, 0.0, 0.0, 0.0, 1.72375, 27.7375, 0.4025, 0.0, 0.0, 0.0, 6.32625, 25.43625, 1.91625
51.9575469494, 0.0, 0.0, 0.0, 2.03875, 28.34125, 0.88375, 0.0, 0.0, 0.0, 6.04625, 25.9875, 1.96
52.0078148842, 0.0, 0.0, 0.0, 1.88125, 27.99125, 0.98, 0.0, 0.0, 0.0, 5.87125, 25.99625, 2.03
52.0582590103, 0.0, 0.0, 0.0, 1.47875, 27.55375, 0.8925, 0.0, 0.0, 0.0, 5.71375, 25.095, 2.0475
52.108714819, 0.0, 0.0, 0.0, 1.0675, 25.5675, 0.88375, 0.0, 0.0, 0.0, 4.90875, 22.95125, 2.135
52.1588737965, 0.0, 0.0, 0.0, 0.21875, 23.16125, 0.8925, 0.0, 0.0, 0.0, 3.91125, 20.755, 1.68
52.2090709209, 0.0, 0.0, 0.0, -0.56, 20.2825, 0.72625, 0.0, 0.0, 0.0, 3.3775, 17.605, 1.56625
52.2593410015, 0.0, 0.0, 0.0, -0.84875, 15.785, 0.7, 0.0, 0.0, 0.0, 3.17625, 15.4175, 1.11125
52.309540987, 0.0, 0.0, 0.0, -1.6975, 14.81375, 0.49, 0.0, 0.0, 0.0, 2.03875, 12.32875, 0.735
52.3597989082, 0.0, 0.0, 0.0, -2.0475, 11.57625, 0.28875, 0.0, 0.0, 0.0, 1.35625, 9.415, 0.5075
52.4101338387, 0.0, 0.0, -0.0, -1.995, 9.6075, -0.07, 0.0, 0.0, 0.0, 1.4175, 7.20125, -0.04375
52.4603459835, 0.0, 0.0, -0.0, -3.05375, 7.0525, -0.35875, 0.0, 0.0, 0.0, 0.69125, 4.27875, -0.62125
52.5106468201, 0.0, 0.0, -0.0, -3.2375, 5.5125, -0.48125, 0.0, 0.0, 0.0, 0.04375, 3.36, -0.63875
52.5609807968, 0.0, -0.0, -0.0, -4.3575, 2.93125, -0.2975, 0.0, 0.0, 0.0, -0.67375, 0.6125, -0.97125
52.6111969948, -0.0, -0.0, -0.0, -5.55625, 0.98, -0.3325, 0.0, 0.0, 0.0, -1.645, -1.28625, -0.8925
52.6613719463, -0.0, -0.0, -0.0, -5.7575, -0.35, -0.315, 0.0, 0.0, 0.0, -2.07375, -2.6775, -1.1375
52.7116119862, -0.0, -0.0, -0.0, -6.25625, -2.3975, 0.00875, 0.0, 0.0, 0.0, -2.93125, -4.97875, -1.02375
52.7619819641, -0.0, -0.0, 0.0, -6.58875, -3.7275, 2.19625, 0.0, 0.0, 0.0, -3.08875, -5.94125, -0.98875
52.8123688698, -0.0, -0.0, -0.0, -6.9475, -5.24125, 0.2975, 0.0, 0.0, 0.0, -3.7275, -7.7175, -1.39125
52.8626689911, -0.0, -0.0, -0.0, -7.35, -6.3875, -0.16625, 0.0, 0.0, 0.0, -4.13875, -8.6625, -1.3825
52.9130527973, -0.0, -0.0, -0.0, -7.20125, -7.60375, -0.1575, 0.0, 0.0, 0.0, -3.89375, -9.93125, -1.54
52.9634540081, -0.0, -0.0, -0.0, -7.00875, -7.5775, -0.4725, 0.0, 0.0, 0.0, -3.7625, -10.00125, -1.3825
53.0136218071, -0.0, -0.0, -0.0, -6.86875, -7.35875, -0.21, 0.0, 0.0, 0.0, -3.57875, -9.4675, -1.46125
53.0639429092, -0.0, -0.0, -0.0, -6.5975, -6.01125, -0.0175, 0.0, 0.0, 0.0, -3.12375, -8.12875, -1.23375
53.1142709255, -0.0, -0.0, -0.0, -5.2325, -4.2875, -0.35, 0.0, 0.0, 0.0, -1.60125, -6.265, -0.90125
53.1644868851, -0.0, -0.0, -0.0, -4.76, -2.87875, -0.1225, 0.0, 0.0, 0.0, -1.28625, -4.5675, -1.04125
53.2148139477, 0.0, -0.0, -0.0, -4.165, -0.42875, 0.2275, 0.0, 0.0, 0.0, -0.49875, -2.45, -0.525
53.2650258541, 0.0, -0.0, -0.0, -3.56125, 1.96875, -0.07, 0.0, 0.0, 0.0, 0.20125, -0.4725, -0.525
53.3152329922, 0.0, -0.0, -0.0, -2.6075, 2.84375, -0.315, 0.0, 0.0, 0.0, 0.81375, 0.8575, -0.46375
53.3654298782, 0.0, 0.0, -0.0, -2.96625, 4.095, -0.51625, 0.0, 0.0, 0.0, 1.00625, 1.4175, -0.8225
53.4156069756, 0.0, 0.0, -0.0, -2.1525, 4.4975, -0.44625, 0.0, 0.0, 0.0, 1.19, 2.07375, -0.90125
53.4659118652, 0.0, 0.0, -0.0, -2.1175, 4.76875, -0.735, 0.0, 0.0, 0.0, 1.63625, 2.91375, -1.0675
53.516343832, 0.0, 0.0, -0.0, -1.95125, 6.23, -0.77875, 0.0, 0.0, 0.0, 1.5575, 4.2875, -0.6475
53.5666258335, 0.0, 0.0, -0.0, -2.03, 7.805, -0.3675, 0.0, 0.0, 0.0, 2.30125, 5.85375, -0.3325
53.6168479919, 0.0, 0.0, -0.0, -1.79375, 9.63375, -0.06125, 0.0, 0.0, 0.0, 1.81125, 7.665, 0.1575
53.6670308113, 0.0, 0.0, 0.0, -1.7325, 11.64625, 0.9275, 0.0, 0.0, 0.0, 1.91625, 8.9075, 0.93625
53.717279911, 0.0, 0.0, 0.0, -2.26625, 12.25875, 1.37375, 0.0, 0.0, 0.0, 1.82, 10.115, 1.645
53.7677128315, 0.0, 0.0, 0.0, -2.02125, 13.86875, 1.67125, 0.0, 0.0, 0.0, 1.6625, 11.48, 1.8025
53.8178939819, 0.0, 0.0, 0.0, -1.82875, 15.54875, 2.12625, 0.0, 0.0, 0.0, 1.74125, 13.11625, 2.42375
53.8681349754, 0.0, 0.0, 0.0, -1.75875, 16.14375, 2.0475, 0.0, 0.0, 0.0, 1.96875, 13.825, 2.44125
53.9183049202, 0.0, 0.0, 0.0, -1.715, 17.7275, 2.26625, 0.0, 0.0, 0.0, 2.37125, 15.44375, 2.72125
53.9685118198, 0.0, 0.0, 0.0, -1.19875, 19.25875, 2.3975, 0.0, 0.0, 0.0, 2.415, 16.9225, 3.0975
54.018807888, 0.0, 0.0, 0.0, -0.735, 19.7925, 2.26625, 0.0, 0.0, 0.0, 2.6075, 17.6225, 2.94875
54.0690009594, 0.0, 0.0, 0.0, -0.8925, 20.48375, 2.45, 0.0, 0.0, 0.0, 3.0625, 18.025, 3.10625
54.1192529202, 0.0, 0.0, 0.0, -0.2275, 20.22125, 2.205, 0.0, 0.0, 0.0, 3.52625, 18.26125, 3.07125
54.1696779728, 0.0, 0.0, 0.0, -0.11375, 19.97625, 2.16125, 0.0, 0.0, 0.0, 3.57, 17.42125, 3.00125
54.2199230194, 0.0, 0.0, 0.0, -0.14875, 18.69875, 2.30125, 0.0, 0.0, 0.0, 3.64875, 16.065, 2.94
54.2702980042, 0.0, 0.0, 0.0, -0.86625, 16.14375, 2.3625, 0.0, 0.0, 0.0, 2.835, 13.2125, 3.01
54.3208148479, 0.0, 0.0, 0.0, -1.68, 12.92375, 2.485, 0.0, 0.0, 0.0, 1.65375, 10.10625, 2.49375
54.3713159561, 0.0, 0.0, 0.0, -2.3275, 10.29875, 2.5725, 0.0, 0.0, 0.0, 1.05, 7.56875, 2.47625
54.4215109348, 0.0, 0.0, 0.0, -3.35125, 6.0025, 2.24875, 0.0, 0.0, 0.0, -0.00875, 3.22875, 1.98625
54.4716849327, 0.0, -0.0, 0.0, -4.2875, 3.21125, 2.31875, 0.0, 0.0, 0.0, -0.72625, 0.315, 1.7675
54.5219538212, -0.0, -0.0, 0.0, -5.73125, -0.07, 2.28375, 0.0, 0.0, 0.0, -2.5725, -2.86125, 1.3825
54.5723190308, -0.0, -0.0, 0.0, -7.39375, -4.55, 2.1, 0.0, 0.0, 0.0, -3.8675, -7.30625, 0.88375
54.62251091, -0.0, -0.0, 0.0, -8.56625, -8.49625, 1.8725, 0.0, 0.0, 0.0, -5.48625, -10.9025, 0.56
54.6726839542, -0.0, -0.0, 0.0, -9.555, -11.27875, 1.5575, 0.0, 0.0, 0.0, -6.44875, -13.53625, 0.2275
54.7233119011, -0.0, -0.0, 0.0, -10.395, -14.42, 1.6625, 0.0, 0.0, 0.0, -7.3675, -16.7125, -0.00875
54.7734968662, -0.0, -0.0, 0.0, -11.025, -15.72375, 1.67125, 0.0, 0.0, 0.0, -7.7175, -18.36625, 0.11375
54.8236899376, -0.0, -0.0, 0.0, -11.06, -17.49125, 1.715, 0.0, 0.0, 0.0, -7.98875, -19.88, -0.20125
54.8738679886, -0.0, -0.0, 0.0, -10.85875, -18.375, 1.72375, 0.0, 0.0, 0.0, -7.91, -20.86875, -0.49875
54.9240949154, -0.0, -0.0, 0.0, -10.57875, -19.7575, 1.49625, 0.0, 0.0, 0.0, -7.98, -21.875, -0.1225
54.9743609428, -0.0, -0.0, 0.0, -10.21125, -20.0025, 1.32125, 0.0, 0.0, 0.0, -7.18375, -22.4, -0.79625
55.0246648788, -0.0, -0.0, 0.0, -9.765, -19.6525, 1.42625, 0.0, 0.0, 0.0, -6.58875, -21.35875, -0.9275
55.0749909878, -0.0, -0.0, 0.0, -8.81125, -18.5675, 1.365, 0.0, 0.0, 0.0, -5.53, -20.405, -0.70875
55.1251699924, -0.0, -0.0, 0.0, -7.91, -17.57875, 1.12875, 0.0, 0.0, 0.0, -4.6375, -19.80125, -0.84875
55.1754469872, -0.0, -0.0, 0.0, -7.11375, -16.54625, 1.015, 0.0, 0.0, 0.0, -3.4825, -18.9875, -0.62125
55.2256419659, -0.0, -0.0, 0.0, -6.195, -13.51, 0.9275, 0.0, 0.0, 0.0, -3.14125, -17.94625, -0.8925
55.2759559155, -0.0, -0.0, 0.0, -5.45125, -14.98875, 0.84875, 0.0, 0.0, 0.0, -2.4675, -17.38625, -1.25125
55.326406002, -0.0, -0.0, -0.0, -5.1275, -13.895, 0.34125, 0.0, 0.0, 0.0, -1.715, -16.24, -1.12
55.3767449856, 0.0, -0.0, -0.0, -4.13, -12.075, 0.14875, 0.0, 0.0, 0.0, -0.735, -14.175, -1.2775
55.4270570278, 0.0, -0.0, -0.0, -3.43875, -10.40375, -0.3675, 0.0, 0.0, 0.0, -0.06125, -12.27625, -1.25125
55.4774119854, 0.0, -0.0, -0.0, -3.03625, -8.89875, -0.30625, 0.0, 0.0, 0.0, 0.37625, -11.26125, -1.75875
55.5275859833, 0.0, -0.0, -0.0, -2.38, -6.51, -0.6125, 0.0, 0.0, 0.0, 1.23375, -8.74125, -1.72375
55.5777659416, 0.0, -0.0, -0.0, -1.98625, -4.025, -0.60375, 0.0, 0.0, 0.0, 1.33875, -5.7225, -1.295
55.6280059814, 0.0, -0.0, -0.0, -1.5925, -1.79375, -0.35875, 0.0, 0.0, 0.0, 1.79375, -3.64875, -1.2075
55.6783230305, 0.0, -0.0, -0.0, -1.2425, 1.68, -0.2625, 0.0, 0.0, 0.0, 2.3275, -0.2975, -0.98
55.7284889221, 0.0, 0.0, -0.0, -1.12875, 5.0925, -0.37625, 0.0, 0.0, 0.0, 2.8525, 3.0275, -0.49875
55.7787408829, 0.0, 0.0, -0.0, -0.8925, 6.95625, -0.49, 0.0, 0.0, 0.0, 2.86125, 5.215, -0.28875
55.8290629387, 0.0, 0.0, -0.0, -0.63, 10.26375, -0.1225, 0.0, 0.0, 0.0, 3.28125, 7.88375, -0.42875
55.879406929, 0.0, 0.0, -0.0, -1.02375, 12.18, -0.20125, 0.0, 0.0, 0.0, 3.3075, 10.0975, -0.175
55.9295539856, 0.0, 0.0, -0.0, -0.42, 13.4925, -0.37625, 0.0, 0.0, 0.0, 3.815, 11.94375, 0.02625
55.9797990322, 0.0, 0.0, -0.0, -0.18375, 15.68875, -0.8575, 0.0, 0.0, 0.0, 3.71, 13.43125, -0.0175
56.0299968719, 0.0, 0.0, -0.0, -0.30625, 16.89625, -1.2425, 0.0, 0.0, 0.0, 3.3775, 15.35625, -0.35
56.0803248882, 0.0, 0.0, -0.0, -0.93625, 17.9375, -0.77, 0.0, 0.0, 0.0, 2.89625, 15.9425, -0.69125
56.1307518482, 0.0, 0.0, -0.0, -0.09625, 19.4425, -0.95375, 0.0, 0.0, 0.0, 3.675, 17.36, -0.32375
56.1809058189, 0.0, 0.0, -0.0, -1.2425, 20.2475, -1.2075, 0.0, 0.0, 0.0, 2.73875, 17.99875, -0.49875
56.2311789989, 0.0, 0.0, -0.0, -1.1375, 21.18375, -1.015, 0.0, 0.0, 0.0, 2.4325, 19.04875, -0.27125
56.2815539837, 0.0, 0.0, -0.0, -1.35625, 21.9975, -1.33875, 0.0, 0.0, 0.0, 2.54625, 19.81875, -0.455
56.3318078518, 0.0, 0.0, -0.0, -1.3475, 22.07625, -1.505, 0.0, 0.0, 0.0, 2.345, 20.475, -0.44625
56.3820579052, 0.0, 0.0, -0.0, -1.855, 22.91625, -1.085, 0.0, 0.0, 0.0, 1.88125, 20.81625, -0.175
56.432268858, 0.0, 0.0, -0.0, -2.47625, 22.645, -1.14625, 0.0, 0.0, 0.0, 1.33875, 20.6675, -0.35875
56.4824779034, 0.0, 0.0, -0.0, -2.49375, 22.26875, -1.05875, 0.0, 0.0, 0.0, 1.54875, 19.9675, -0.0875
56.5326898098, 0.0, 0.0, -0.0, -3.0275, 20.685, -0.98875, 0.0, 0.0, 0.0, 0.93625, 18.50625, -0.245
56.5829329491, 0.0, 0.0, -0.0, -3.3075, 18.6725, -1.0325, 0.0, 0.0, 0.0, 0.455, 16.485, -0.21
56.633207798, 0.0, 0.0, -0.0, -3.92875, 17.1325, -1.09375, 0.0, 0.0, 0.0, -0.28, 15.1725, -0.49
56.68354702, 0.0, 0.0, -0.0, -4.33125, 14.90125, -1.47, 0.0, 0.0, 0.0, -0.595, 12.11875, -1.4175
56.7337269783, -0.0, 0.0, -0.0, -4.7425, 12.94125, -1.86375, 0.0, 0.0, 0.0, -0.95375, 10.63125, -1.63625
56.7839138508, -0.0, 0.0, -0.0, -5.3025, 9.6075, -2.23125, 0.0, 0.0, 0.0, -1.54, 7.34125, -1.9775
56.8340969086, -0.0, 0.0, -0.0, -5.66125, 7.945, -2.02125, 0.0, 0.0, 0.0, -1.81125, 5.62625, -1.89875
56.8843278885, -0.0, 0.0, -0.0, -6.1075, 5.10125, -2.33625, 0.0, 0.0, 0.0, -2.4675, 2.80875, -2.66
56.9346008301, -0.0, 0.0, -0.0, -6.44875, 3.7625, -2.0125, 0.0, 0.0, 0.0, -2.86125, 1.37375, -2.33625
56.9847848415, -0.0, -0.0, -0.0, -6.8775, 1.4175, -1.995, 0.0, 0.0, 0.0, -3.29, -0.525, -2.28375
57.0349948406, -0.0, -0.0, -0.0, -7.06125, 0.14875, -1.74125, 0.0, 0.0, 0.0, -3.45625, -1.77625, -2.6075
57.0853049755, -0.0, -0.0, -0.0, -7.27125, -1.6975, -1.5225, 0.0, 0.0, 0.0, -3.675, -3.68375, -2.555
57.1354370117, -0.0, -0.0, -0.0, -6.965, -2.8175, -2.0125, 0.0, 0.0, 0.0, -3.94625, -4.55875, -2.54625
57.1856398582, -0.0, -0.0, -0.0, -7.4025, -4.31375, -1.8375, 0.0, 0.0, 0.0, -3.66625, -6.41375, -3.185
57.236191988, -0.0, -0.0, -0.0, -7.0, -5.8275, -1.84625, 0.0, 0.0, 0.0, -3.45625, -7.81375, -3.22
57.2866139412, -0.0, -0.0, -0.0, -6.88625, -6.8775, -1.89, 0.0, 0.0, 0.0, -3.49125, -8.575, -3.22875
57.3368890285, -0.0, -0.0, -0.0, -6.44875, -7.51625, -2.0825, 0.0, 0.0, 0.0, -3.12375, -10.045, -3.43
57.3872349262, -0.0, -0.0, -0.0, -6.65, -8.2775, -1.75, 0.0, 0.0, 0.0, -2.75625, -10.40375, -3.4825
57.4374849796, -0.0, -0.0, -0.0, -5.59125, -8.19875, -2.1875, 0.0, 0.0, 0.0, -2.26625, -10.2725, -3.15
57.4876968861, -0.0, -0.0, -0.0, -5.18, -7.63, -1.79375, 0.0, 0.0, 0.0, -1.53125, -9.7125, -2.98375
57.537997961, 0.0, -0.0, -0.0, -4.4975, -5.87125, -1.70625, 0.0, 0.0, 0.0, -1.12, -7.98, -2.70375
57.5881428719, 0.0, -0.0, -0.0, -3.59625, -4.1825, -1.3475, 0.0, 0.0, 0.0, -0.00875, -6.46625, -2.415
57.6383469105, 0.0, -0.0, -0.0, -3.01875, -3.2725, -1.25125, 0.0, 0.0, 0.0, 0.70875, -5.43375, -2.10875
57.6886239052, 0.0, -0.0, -0.0, -2.56375, -2.555, -1.12, 0.0, 0.0, 0.0, 1.0325, -4.54125, -1.70625
57.7389068604, 0.0, -0.0, -0.0, -2.17, -1.67125, -1.12, 0.0, 0.0, 0.0, 1.6275, -3.63125, -1.60125
57.7893049717, 0.0, -0.0, -0.0, 0.42, -0.5075, -1.56625, 0.0, 0.0, 0.0, 4.165, -2.6425, -1.9075
57.8396139145, 0.0, -0.0, -0.0, 0.93625, -0.07, -1.63625, 0.0, 0.0, 0.0, 5.04, -2.3975, -2.5025
57.8898589611, 0.0, -0.0, -0.0, 2.77375, 0.00875, -1.77625, 0.0, 0.0, 0.0, 6.55375, -2.0125, -2.3975
57.940101862, 0.0, -0.0, -0.0, 2.58125, 0.1575, -2.1525, 0.0, 0.0, 0.0, 6.86875, -1.82, -2.5025
57.9904398918, 0.0, -0.0, -0.0, 2.82625, 0.56, -1.93375, 0.0, 0.0, 0.0, 6.44, -1.0675, -2.8
58.0407848358, 0.0, -0.0, -0.0, 1.18125, 1.89, -2.23125, 0.0, 0.0, 0.0, 4.585, -0.14, -2.54625
58.0909759998, 0.0, -0.0, -0.0, 1.05875, 2.47625, -2.24875, 0.0, 0.0, 0.0, 4.55, 0.98, -2.6425
58.1412808895, 0.0, 0.0, -0.0, -0.06125, 4.1475, -2.1525, 0.0, 0.0, 0.0, 3.70125, 2.24875, -2.1875
58.1916718483, 0.0, 0.0, -0.0, -0.6125, 6.3, -2.0825, 0.0, 0.0, 0.0, 3.0975, 3.9375, -2.23125
58.2418599129, 0.0, 0.0, -0.0, -1.1375, 7.35875, -1.575, 0.0, 0.0, 0.0, 1.9075, 5.01375, -1.8025
58.2920379639, 0.0, 0.0, -0.0, -2.31875, 8.79375, -1.1375, 0.0, 0.0, 0.0, 1.53125, 6.32625, -1.68875
58.3422138691, 0.0, 0.0, -0.0, -2.47625, 9.33625, -1.37375, 0.0, 0.0, 0.0, 1.40875, 6.895, -1.58375
58.3928608894, 0.0, 0.0, -0.0, -3.57875, 9.31, -1.4, 0.0, 0.0, 0.0, 0.3325, 7.11375, -1.3125
58.443420887, 0.0, 0.0, -0.0, -3.3775, 9.52, -1.68, 0.0, 0.0, 0.0, 0.27125, 7.5425, -1.7675
58.4936280251, -0.0, 0.0, -0.0, -4.71625, 9.3975, -1.75875, 0.0, 0.0, 0.0, -0.69125, 7.455, -2.07375
58.5438799858, 0.0, 0.0, -0.0, -4.33125, 9.3625, -1.96875, 0.0, 0.0, 0.0, -0.67375, 7.32375, -1.96
58.5941648483, -0.0, 0.0, -0.0, -4.73375, 9.05625, -2.05625, 0.0, 0.0, 0.0, -1.26875, 7.42875, -2.00375
58.6444139481, -0.0, 0.0, -0.0, -5.06625, 9.00375, -2.2575, 0.0, 0.0, 0.0, -1.2425, 7.0875, -1.925
58.6946189404, -0.0, 0.0, -0.0, -5.43375, 8.86375, -2.40625, 0.0, 0.0, 0.0, -1.6275, 7.1225, -2.2925
58.745223999, -0.0, 0.0, -0.0, -5.73125, 8.89875, -2.19625, 0.0, 0.0, 0.0, -2.59875, 7.06125, -2.26625
58.7956438065, -0.0, 0.0, -0.0, -6.1075, 8.86375, -2.31, 0.0, 0.0, 0.0, -2.4325, 6.83375, -2.44125
58.8460729122, -0.0, 0.0, -0.0, -6.65875, 8.74125, -2.28375, 0.0, 0.0, 0.0, -2.87875, 6.7025, -2.5025
58.8962910175, -0.0, 0.0, -0.0, -6.79, 8.1725, -2.24875, 0.0, 0.0, 0.0, -2.87875, 6.23875, -2.3625
58.9465429783, -0.0, 0.0, -0.0, -7.30625, 7.6125, -2.2925, 0.0, 0.0, 0.0, -3.395, 5.90625, -2.51125
58.9966869354, -0.0, 0.0, -0.0, -8.4, 6.85125, -1.47875, 0.0, 0.0, 0.0, -4.80375, 4.80375, -2.54625
59.0469119549, -0.0, 0.0, -0.0, -7.42875, 6.0025, -2.79125, 0.0, 0.0, 0.0, -3.08, 3.7275, -2.96625
59.0970718861, -0.0, 0.0, -0.0, -7.98, 5.24125, -2.84375, 0.0, 0.0, 0.0, -4.38375, 3.43875, -3.0625
59.1472468376, -0.0, 0.0, -0.0, -7.28875, 4.3575, -2.75625, 0.0, 0.0, 0.0, -3.47375, 2.695, -3.28125
59.1978218555, -0.0, 0.0, -0.0, -7.7, 3.94625, -2.5725, 0.0, 0.0, 0.0, -3.92875, 1.95125, -2.94
59.2480299473, -0.0, 0.0, -0.0, -6.7025, 3.40375, -2.905, 0.0, 0.0, 0.0, -3.01875, 1.40875, -3.17625
59.2983260155, -0.0, -0.0, -0.0, -7.06125, 2.6425, -2.59, 0.0, 0.0, 0.0, -3.45625, 0.58625, -3.4475
59.3485720158, -0.0, -0.0, -0.0, -6.16, 1.91625, -2.73, 0.0, 0.0, 0.0, -2.68625, 0.44625, -2.94
59.3987920284, -0.0, -0.0, -0.0, -5.59125, 1.37375, -2.6075, 0.0, 0.0, 0.0, -1.855, -0.63875, -3.00125
59.4490408897, -0.0, -0.0, -0.0, -5.27625, 1.07625, -2.4325, 0.0, 0.0, 0.0, -1.96875, -1.14625, -3.12375
59.4992539883, 0.0, -0.0, -0.0, -4.50625, -0.07875, -2.73, 0.0, 0.0, 0.0, -0.84875, -1.53125, -3.325
59.5495228767, -0.0, -0.0, -0.0, -5.10125, -2.17875, -2.73875, 0.0, 0.0, 0.0, -1.74125, -2.0125, -3.3775
59.5999469757, 0.0, -0.0, -0.0, -4.27875, -0.2275, -2.52, 0.0, 0.0, 0.0, -0.6125, -2.40625, -3.45625
59.6501209736, 0.0, -0.0, -0.0, -4.05125, -0.51625, -2.695, 0.0, 0.0, 0.0, -0.07, -2.49375, -3.325
59.7004008293, 0.0, -0.0, -0.0, -2.94, -0.79625, -2.42375, 0.0, 0.0, 0.0, 0.51625, -2.7475, -3.49125
59.7507429123, 0.0, -0.0, -0.0, -2.87875, -0.7525, -2.72125, 0.0, 0.0, 0.0, 0.42, -3.07125, -2.8525
59.8010089397, 0.0, -0.0, -0.0, -2.42375, -0.76125, -2.70375, 0.0, 0.0, 0.0, 1.0325, -2.84375, -3.75375
59.8513579369, 0.0, -0.0, -0.0, -3.6575, -0.9625, -2.7475, 0.0, 0.0, 0.0, 0.16625, -2.5025, -3.7275
59.9015989304, 0.0, -0.0, -0.0, -2.4325, -0.5425, -2.3975, 0.0, 0.0, 0.0, 1.085, -2.5025, -3.1325
59.9517958164, 0.0, -0.0, -0.0, -3.3075, -0.35875, -2.51125, 0.0, 0.0, 0.0, 0.8225, -2.38, -3.07125
60.0020608902, 0.0, -0.0, -0.0, -1.4, 0.21, -2.5725, 0.0, 0.0, 0.0, 1.5575, -1.47, -3.2375
60.052284956, 0.0, -0.0, -0.0, -2.61625, 0.8925, -2.275, 0.0, 0.0, 0.0, 1.79375, -1.60125, -3.08875
60.1024780273, 0.0, -0.0, -0.0, -1.84625, 1.82875, -2.45, 0.0, 0.0, 0.0, 1.79375, -0.5775, -2.8
60.152725935, 0.0, -0.0, -0.0, -1.82875, 2.135, -2.30125, 0.0, 0.0, 0.0, 1.75875, 0.18375, -2.905
60.2029559612, 0.0, -0.0, -0.0, -1.5225, 2.835, -2.14375, 0.0, 0.0, 0.0, 1.68875, 0.9625, -2.65125
60.2532420158, 0.0, 0.0, -0.0, -1.3825, 3.59625, -2.135, 0.0, 0.0, 0.0, 2.0475, 1.33875, -2.63375
60.3034689426, 0.0, 0.0, -0.0, -1.3825, 4.36625, -2.31875, 0.0, 0.0, 0.0, 2.205, 2.555, -2.8525
60.3539288044, 0.0, 0.0, -0.0, -1.96, 5.11875, -2.2925, 0.0, 0.0, 0.0, 1.26, 2.905, -2.3275
60.4042639732, 0.0, 0.0, -0.0, -1.91625, 5.52125, -2.1525, 0.0, 0.0, 0.0, 1.63625, 3.26375, -2.42375
60.4544878006, 0.0, 0.0, -0.0, -1.925, 6.3, -2.42375, 0.0, 0.0, 0.0, 2.38875, 3.92875, -2.555
60.504858017, 0.0, 0.0, -0.0, -1.54, 6.1775, -2.38, 0.0, 0.0, 0.0, 2.17875, 4.38375, -2.19625
60.5553920269, 0.0, 0.0, -0.0, -1.7675, 6.475, -2.21375, 0.0, 0.0, 0.0, 2.00375, 4.725, -2.47625
60.6056568623, 0.0, 0.0, -0.0, -1.785, 6.86875, -2.24875, 0.0, 0.0, 0.0, 1.54875, 4.94375, -2.5375
60.6559138298, 0.0, 0.0, -0.0, -2.16125, 7.3675, -2.205, 0.0, 0.0, 0.0, 1.19, 5.355, -2.45
60.7061448097, 0.0, 0.0, -0.0, -2.765, 7.04375, -2.31875, 0.0, 0.0, 0.0, 1.1725, 5.1975, -2.5025
60.7563858032, 0.0, 0.0, -0.0, -2.94875, 7.42, -2.205, 0.0, 0.0, 0.0, 0.86625, 5.46, -2.4675
60.8065669537, 0.0, 0.0, -0.0, -2.8175, 7.62125, -2.02125, 0.0, 0.0, 0.0, 0.67375, 5.775, -2.0825
60.8567419052, 0.0, 0.0, -0.0, -3.185, 7.9275, -1.6275, 0.0, 0.0, 0.0, 0.11375, 6.20375, -1.9425
60.9069509506, 0.0, 0.0, -0.0, -3.45625, 7.97125, -1.7675, 0.0, 0.0, 0.0, 0.06125, 6.055, -1.995
60.9571068287, 0.0, 0.0, -0.0, -3.465, 8.19, -1.75875, 0.0, 0.0, 0.0, -0.2625, 5.99375, -1.56625
61.0072698593, 0.0, 0.0, -0.0, -4.10375, 8.2425, -1.49625, 0.0, 0.0, 0.0, -0.74375, 6.125, -1.4525
61.057571888, 0.0, 0.0, -0.0, -3.91125, 8.11125, -1.3475, 0.0, 0.0, 0.0, -0.0875, 6.08125, -1.785
61.1078839302, 0.0, 0.0, -0.0, -4.235, 7.91875, -1.40875, 0.0, 0.0, 0.0, -0.51625, 5.5825, -2.0475
61.1581068039, 0.0, 0.0, -0.0, -3.7625, 7.42875, -1.5925, 0.0, 0.0, 0.0, -0.65625, 5.6, -1.96
61.208386898, 0.0, 0.0, -0.0, -4.62875, 6.90375, -2.0125, 0.0, 0.0, 0.0, -0.44625, 4.9, -2.275
61.2585828304, 0.0, 0.0, -0.0, -4.45375, 6.6675, -1.74125, 0.0, 0.0, 0.0, -0.5775, 4.3575, -2.135
61.3089058399, 0.0, 0.0, -0.0, -3.85, 6.20375, -1.89875, 0.0, 0.0, 0.0, -0.42, 4.305, -2.35375
61.359292984, 0.0, 0.0, -0.0, -3.9725, 5.7575, -1.8375, 0.0, 0.0, 0.0, -0.44625, 3.9375, -2.28375
61.4095108509, 0.0, 0.0, -0.0, -4.1475, 5.67875, -1.855, 0.0, 0.0, 0.0, -0.44625, 3.8325, -2.065
61.4597449303, 0.0, 0.0, -0.0, -4.10375, 5.81, -1.575, 0.0, 0.0, 0.0, -0.6825, 3.5175, -1.82
61.5099818707, 0.0, 0.0, -0.0, -3.94625, 5.52125, -1.4175, 0.0, 0.0, 0.0, -0.5075, 3.71, -1.54
61.5602209568, 0.0, 0.0, -0.0, -3.99875, 5.87125, -1.26, 0.0, 0.0, 0.0, -0.51625, 3.75375, -1.5575
61.6104598045, 0.0, 0.0, -0.0, -4.0075, 6.0375, -1.04125, 0.0, 0.0, 0.0, -0.42, 3.77125, -1.44375
61.6606798172, 0.0, 0.0, -0.0, -3.5175, 6.37875, -0.8575, 0.0, 0.0, 0.0, -0.1925, 4.22625, -1.02375
61.7111048698, 0.0, 0.0, -0.0, -3.325, 7.1225, -0.28, 0.0, 0.0, 0.0, -0.28875, 4.94375, -0.875
61.7613418102, 0.0, 0.0, -0.0, -3.255, 7.77875, -0.30625, 0.0, 0.0, 0.0, 0.23625, 5.48625, -0.42875
61.8115768433, 0.0, 0.0, -0.0, -3.19375, 8.32125, -0.105, 0.0, 0.0, 0.0, 0.51625, 5.985, -0.1575
61.862156868, 0.0, 0.0, -0.0, -2.8525, 9.07375, 0.0875, 0.0, 0.0, 0.0, 1.19, 6.8425, 0.035
61.9123198986, 0.0, 0.0, 0.0, -2.38875, 9.975, 0.76125, 0.0, 0.0, 0.0, 1.4175, 7.91, 0.83125
61.9626019001, 0.0, 0.0, 0.0, -2.26625, 10.40375, 1.07625, 0.0, 0.0, 0.0, 1.25125, 8.54, 1.05875
62.0129768848, 0.0, 0.0, 0.0, -2.1875, 11.41, 1.28625, 0.0, 0.0, 0.0, 1.75875, 9.1, 1.56625
62.0632548332, 0.0, 0.0, 0.0, -1.14625, 12.45125, 1.54875, 0.0, 0.0, 0.0, 2.8175, 9.72125, 1.96
62.1134819984, 0.0, 0.0, 0.0, -1.14625, 12.6525, 2.135, 0.0, 0.0, 0.0, 2.21375, 10.4125, 2.52875
62.1637070179, 0.0, 0.0, 0.0, -1.26875, 13.13375, 2.73875, 0.0, 0.0, 0.0, 2.09125, 10.31625, 3.29875
62.2139968872, 0.0, 0.0, 0.0, -1.58375, 12.67875, 3.255, 0.0, 0.0, 0.0, 1.75875, 10.10625, 3.45625
62.2659509182, 0.0, 0.0, 0.0, -2.05625, 12.495, 3.98125, 0.0, 0.0, 0.0, 1.855, 10.36875, 4.0775
62.3162858486, 0.0, 0.0, 0.0, -1.5575, 12.48625, 3.85875, 0.0, 0.0, 0.0, 2.17875, 9.75625, 3.885
62.3664939404, 0.0, 0.0, 0.0, -1.86375, 11.795, 4.24375, 0.0, 0.0, 0.0, 1.575, 9.54625, 4.62875
62.4169669151, 0.0, 0.0, 0.0, -2.05625, 11.5325, 4.41875, 0.0, 0.0, 0.0, 0.98, 8.91625, 4.82125
62.4674959183, 0.0, 0.0, 0.0, -2.0475, 11.43625, 4.7775, 0.0, 0.0, 0.0, 1.4525, 8.81125, 4.82125
62.5177268982, 0.0, 0.0, 0.0, -2.56375, 11.01625, 5.39875, 0.0, 0.0, 0.0, 0.98875, 7.9975, 5.4425
62.5688459873, 0.0, 0.0, 0.0, -2.61625, 10.29, 5.74875, 0.0, 0.0, 0.0, 0.84875, 7.65625, 5.64375
62.6189799309, 0.0, 0.0, 0.0, -2.73875, 9.5725, 6.02, 0.0, 0.0, 0.0, 0.53375, 6.65, 6.02875
