TIME, IMU1_gyr_x, IMU1_gyr_y, IMU1_gyr_z, IMU1_gyr_raw_x, IMU1_gyr_raw_y, IMU1_gyr_raw_z,IMU2_gyr_x, IMU2_gyr_y,IMU2_gyr_z, IMU2_gyr_raw_x, IMU2_gyr_raw_y, IMU2_gyr_raw_z3.09944152832e-06, 0.0, 0.0, 0.0, 0.0, 0.0, 0.0, 0.0, 0.0, 0.0, 0.0, 0.0, 0.0
0.0501809120178, 0.0, 0.0, -0.0, -3.78, 3.73625, 0.6475, 0.0, 0.0, 0.0, -0.2975, 1.89, 0.30625
0.100322008133, 0.0, 0.0, -0.0, -3.75375, 3.63125, 0.79625, 0.0, 0.0, 0.0, -0.16625, 1.72375, 0.0875
0.150468111038, 0.0, 0.0, -0.0, -3.6225, 3.50875, 0.4725, 0.0, 0.0, 0.0, -0.245, 1.93375, 0.21875
0.200632095337, 0.0, 0.0, -0.0, -4.01625, 3.5175, 0.58625, 0.0, 0.0, 0.0, -0.18375, 1.785, 0.42
0.250868082047, 0.0, 0.0, -0.0, -3.66625, 3.5, 0.63875, 0.0, 0.0, 0.0, -0.46375, 1.82, 0.4375
0.301177024841, 0.0, 0.0, -0.0, -3.9375, 3.57875, 0.4375, 0.0, 0.0, 0.0, -0.39375, 1.96875, 0.20125
0.351488113403, 0.0, 0.0, -0.0, -3.815, 3.52625, 0.58625, 0.0, 0.0, 0.0, -0.20125, 1.925, 0.41125
0.401742935181, 0.0, 0.0, -0.0, -3.78, 3.59625, 0.595, 0.0, 0.0, 0.0, -0.4025, 1.54875, 0.18375
0.451956987381, 0.0, 0.0, -0.0, -3.675, 3.5875, 0.62125, 0.0, 0.0, 0.0, -0.30625, 1.4875, -0.1575
0.502137899399, 0.0, 0.0, -0.0, -3.9375, 3.64, 0.70875, 0.0, 0.0, 0.0, -0.42, 1.89875, 0.16625
0.552445888519, 0.0, -0.0, -0.0, -3.64875, 3.28125, 0.41125, 0.0, 0.0, 0.0, -0.21875, 1.54875, 0.1225
0.602727890015, 0.0, 0.0, 0.0, -3.745, 3.80625, 0.39375, 0.0, 0.0, 0.0, -0.28875, 1.925, 0.49875
0.652937889099, 0.0, 0.0, -0.0, -3.75375, 3.675, 0.72625, 0.0, 0.0, 0.0, -0.2975, 1.65375, 0.21875
0.70327091217, 0.0, 0.0, -0.0, -3.7625, 3.64, 0.735, 0.0, 0.0, 0.0, -0.48125, 1.7675, 0.1575
0.753700971603, 0.0, 0.0, -0.0, -3.8325, 3.68375, 0.48125, 0.0, 0.0, 0.0, -0.34125, 1.79375, 0.105
0.803879022598, 0.0, 0.0, -0.0, -3.9375, 3.7275, 0.55125, 0.0, 0.0, 0.0, -0.28875, 1.86375, 0.035
0.854063034058, 0.0, 0.0, -0.0, -3.675, 3.71, 0.49875, 0.0, 0.0, 0.0, -0.18375, 1.6275, 0.06125
0.90421795845, 0.0, 0.0, -0.0, -3.7625, 3.59625, 0.62125, 0.0, 0.0, 0.0, -0.44625, 1.925, 0.28
0.95449590683, 0.0, 0.0, -0.0, -3.8675, 3.675, 0.55125, 0.0, 0.0, 0.0, -0.37625, 2.0825, 0.46375
1.00497698784, 0.0, 0.0, -0.0, -3.71, 3.7625, 0.7525, 0.0, 0.0, 0.0, -0.3325, 1.56625, 0.28875
1.05527091026, 0.0, 0.0, -0.0, -3.6575, 3.43, 0.385, 0.0, 0.0, 0.0, -0.46375, 2.02125, 0.21
1.10550403595, 0.0, 0.0, -0.0, -3.66625, 3.42125, 0.735, 0.0, 0.0, 0.0, -0.3675, 1.74125, 0.27125
1.15582799911, 0.0, 0.0, 0.0, -3.7625, 3.50875, 0.53375, 0.0, 0.0, 0.0, -0.5775, 1.9425, 0.51625
1.20605111122, 0.0, 0.0, -0.0, -3.84125, 3.7625, 0.49875, 0.0, 0.0, 0.0, -0.39375, 1.91625, 0.37625
1.25638389587, 0.0, 0.0, -0.0, -3.92875, 3.70125, 0.63, 0.0, 0.0, 0.0, -0.20125, 1.89875, 0.14
1.30667710304, 0.0, 0.0, -0.0, -3.955, 3.71, 0.735, 0.0, 0.0, 0.0, -0.25375, 1.7675, 0.14
1.35690307617, 0.0, 0.0, -0.0, -3.6925, 3.63125, 0.49, 0.0, 0.0, 0.0, -0.385, 1.7675, 0.0175
1.40714788437, 0.0, 0.0, -0.0, -3.87625, 3.605, 0.5425, 0.0, 0.0, 0.0, -0.48125, 1.47, 0.25375
1.45737099648, 0.0, 0.0, -0.0, -4.08625, 3.7625, 0.58625, 0.0, 0.0, 0.0, -0.18375, 1.65375, 0.20125
1.50756907463, 0.0, 0.0, -0.0, -3.89375, 3.8325, 0.72625, 0.0, 0.0, 0.0, -0.28875, 1.6275, 0.35875
1.55781197548, 0.0, 0.0, -0.0, -3.70125, 3.57875, 0.60375, 0.0, 0.0, 0.0, -0.39375, 1.715, 0.02625
1.60814094543, 0.0, 0.0, 0.0, -3.815, 3.68375, 0.6125, 0.0, 0.0, 0.0, -0.49, 1.86375, 0.51625
1.65844607353, 0.0, 0.0, -0.0, -3.84125, 3.78, 0.455, 0.0, 0.0, 0.0, -0.2975, 1.8025, 0.1925
1.70869088173, 0.0, 0.0, 0.0, -3.85, 3.5175, 0.74375, 0.0, 0.0, 0.0, -0.32375, 1.86375, 0.6125
1.75896692276, 0.0, 0.0, -0.0, -3.885, 3.85, 0.525, 0.0, 0.0, 0.0, -0.16625, 1.575, 0.0525
1.80911803246, 0.0, 0.0, -0.0, -3.94625, 3.6925, 0.51625, 0.0, 0.0, 0.0, -0.245, 1.77625, 0.2975
1.85936403275, 0.0, 0.0, -0.0, -3.70125, 3.535, 0.41125, 0.0, 0.0, 0.0, -0.16625, 1.89, 0.23625
1.90955901146, 0.0, 0.0, -0.0, -3.91125, 3.75375, 0.62125, 0.0, 0.0, 0.0, -0.175, 1.89875, 0.245
1.96002292633, 0.0, 0.0, -0.0, -3.94625, 3.7625, 0.67375, 0.0, 0.0, 0.0, -0.4725, 1.855, 0.11375
2.01034593582, 0.0, 0.0, -0.0, -3.94625, 3.6575, 0.63, 0.0, 0.0, 0.0, -0.27125, 1.82875, 0.21
2.06063008308, 0.0, 0.0, -0.0, -3.85875, 3.7975, 0.4025, 0.0, 0.0, 0.0, -0.2975, 1.855, 0.21
2.110861063, 0.0, 0.0, -0.0, -4.025, 3.61375, 0.60375, 0.0, 0.0, 0.0, -0.3675, 2.07375, -0.07
2.16111397743, 0.0, 0.0, -0.0, -4.0775, 3.59625, 0.63875, 0.0, 0.0, 0.0, -0.49875, 1.89875, 0.48125
2.21133208275, 0.0, 0.0, 0.0, -4.10375, 3.80625, 0.56, 0.0, 0.0, 0.0, -0.3325, 1.91625, 0.51625
2.26154589653, 0.0, 0.0, -0.0, -3.92875, 3.8675, 0.56875, 0.0, 0.0, 0.0, -0.385, 1.72375, 0.09625
2.31178307533, 0.0, 0.0, -0.0, -4.025, 3.7625, 0.51625, 0.0, 0.0, 0.0, -0.23625, 1.75875, 0.39375
2.36202406883, 0.0, 0.0, -0.0, -3.91125, 3.47375, 0.46375, 0.0, 0.0, 0.0, -0.35, 1.61, 0.3325
2.4122428894, 0.0, 0.0, -0.0, -3.82375, 3.85875, 0.5075, 0.0, 0.0, 0.0, -0.3675, 1.75, 0.14875
2.46250510216, 0.0, 0.0, -0.0, -4.0425, 3.92, 0.48125, 0.0, 0.0, 0.0, -0.23625, 1.75, 0.28875
2.51275110245, 0.0, 0.0, -0.0, -3.73625, 3.43, 0.665, 0.0, 0.0, 0.0, -0.28, 1.6275, 0.30625
2.56300091743, 0.0, 0.0, -0.0, -3.8675, 3.57, 0.595, 0.0, 0.0, 0.0, -0.16625, 1.4525, 0.35875
2.61321091652, 0.0, 0.0, -0.0, -3.8325, 3.68375, 0.665, 0.0, 0.0, 0.0, -0.4375, 1.645, 0.18375
2.66345310211, 0.0, 0.0, -0.0, -3.89375, 3.6225, 0.525, 0.0, 0.0, 0.0, -0.4725, 1.7675, 0.455
2.71375393867, 0.0, 0.0, -0.0, -3.59625, 3.49125, 0.595, 0.0, 0.0, 0.0, -0.09625, 1.79375, 0.39375
2.76408195496, 0.0, 0.0, 0.0, -3.59625, 3.5, 0.5425, 0.0, 0.0, 0.0, -0.3325, 1.60125, 0.51625
2.81433105469, 0.0, 0.0, -0.0, -3.91125, 3.61375, 0.63875, 0.0, 0.0, 0.0, -0.56, 1.61875, 0.14875
2.86459994316, 0.0, 0.0, 0.0, -3.92875, 3.78, 0.79625, 0.0, 0.0, 0.0, -0.4375, 1.77625, 0.23625
2.91474795341, 0.0, 0.0, -0.0, -3.8675, 3.54375, 0.6125, 0.0, 0.0, 0.0, -0.35, 1.645, 0.39375
2.96501302719, 0.0, 0.0, -0.0, -3.8325, 3.63125, 0.665, 0.0, 0.0, 0.0, -0.39375, 1.65375, 0.41125
3.01519989967, 0.0, 0.0, -0.0, -3.7275, 3.605, 0.62125, 0.0, 0.0, 0.0, -0.14875, 1.65375, 0.39375
3.06545805931, 0.0, 0.0, -0.0, -4.025, 3.52625, 0.595, 0.0, 0.0, 0.0, -0.14, 1.47, 0.175
3.11566591263, 0.0, 0.0, 0.0, -4.01625, 3.63125, 0.86625, 0.0, 0.0, 0.0, -0.3325, 1.82, 0.28875
3.16586303711, 0.0, 0.0, -0.0, -3.63125, 3.6225, 0.49, 0.0, 0.0, 0.0, -0.42, 1.65375, 0.20125
3.21610808372, 0.0, 0.0, -0.0, -3.57875, 3.5525, 0.665, 0.0, 0.0, 0.0, -0.23625, 1.6275, 0.11375
3.26634502411, 0.0, 0.0, -0.0, -3.98125, 3.75375, 0.44625, 0.0, 0.0, 0.0, -0.5075, 1.54, 0.455
3.31676292419, 0.0, 0.0, 0.0, -3.91125, 3.5875, 0.63875, 0.0, 0.0, 0.0, -0.385, 1.88125, 0.56875
3.367166996, 0.0, 0.0, -0.0, -3.885, 3.68375, 0.51625, 0.0, 0.0, 0.0, -0.16625, 1.7325, 0.35
3.41742897034, 0.0, 0.0, -0.0, -3.9375, 3.52625, 0.5075, 0.0, 0.0, 0.0, -0.13125, 1.6975, 0.3325
3.46772003174, 0.0, 0.0, -0.0, -3.84125, 3.675, 0.48125, 0.0, 0.0, 0.0, -0.30625, 1.79375, 0.16625
3.51793003082, 0.0, 0.0, -0.0, -3.8675, 3.465, 0.63875, 0.0, 0.0, 0.0, -0.3675, 1.74125, 0.2275
3.56816887856, 0.0, 0.0, -0.0, -3.955, 3.57875, 0.595, 0.0, 0.0, 0.0, -0.18375, 1.61875, 0.11375
3.61839795113, 0.0, 0.0, -0.0, -4.0075, 3.64, 0.70875, 0.0, 0.0, 0.0, -0.34125, 1.77625, 0.35875
3.66856098175, 0.0, 0.0, -0.0, -3.885, 3.57875, 0.48125, 0.0, 0.0, 0.0, -0.34125, 1.88125, 0.09625
3.71881890297, 0.0, 0.0, -0.0, -3.82375, 3.56125, 0.67375, 0.0, 0.0, 0.0, -0.09625, 1.77625, 0.07
3.76905989647, 0.0, 0.0, 0.0, -3.7975, 3.5525, 0.5775, 0.0, 0.0, 0.0, -0.2975, 1.74125, 0.49
3.81937289238, 0.0, 0.0, -0.0, -3.85, 3.68375, 0.595, 0.0, 0.0, 0.0, -0.21875, 1.6975, 0.3675
3.86983299255, 0.0, 0.0, -0.0, -3.92, 3.68375, 0.65625, 0.0, 0.0, 0.0, -0.1925, 1.645, 0.41125
3.91999387741, 0.0, 0.0, -0.0, -3.8675, 3.7275, 0.56875, 0.0, 0.0, 0.0, -0.21875, 1.645, 0.37625
3.97021102905, 0.0, 0.0, -0.0, -3.99875, 3.92875, 0.6825, 0.0, 0.0, 0.0, -0.5425, 1.88125, 0.14875
4.02038407326, 0.0, 0.0, -0.0, -3.9375, 3.64875, 0.67375, 0.0, 0.0, 0.0, -0.13125, 1.75, 0.06125
4.07066392899, 0.0, 0.0, -0.0, -3.7275, 3.815, 0.595, 0.0, 0.0, 0.0, -0.34125, 1.5225, 0.30625
4.12099695206, 0.0, 0.0, -0.0, -3.78, 3.45625, 0.60375, 0.0, 0.0, 0.0, -0.4375, 1.44375, 0.1925
4.1712179184, 0.0, 0.0, -0.0, -3.92, 3.57, 0.65625, 0.0, 0.0, 0.0, -0.06125, 1.86375, 0.21
4.22153902054, 0.0, 0.0, -0.0, -3.8325, 3.6925, 0.58625, 0.0, 0.0, 0.0, -0.25375, 1.70625, 0.21
4.27183794975, 0.0, 0.0, -0.0, -3.80625, 3.61375, 0.6825, 0.0, 0.0, 0.0, -0.105, 1.63625, 0.3325
4.32206988335, 0.0, 0.0, -0.0, -3.8675, 3.54375, 0.7, 0.0, 0.0, 0.0, -0.30625, 1.68875, 0.4025
4.37226605415, 0.0, 0.0, -0.0, -3.75375, 3.71, 0.62125, 0.0, 0.0, 0.0, -0.27125, 1.645, 0.2275
4.4224729538, 0.0, 0.0, -0.0, -3.96375, 3.605, 0.6825, 0.0, 0.0, 0.0, -0.48125, 1.9075, 0.35875
4.47273111343, 0.0, 0.0, -0.0, -3.71875, 3.5, 0.6825, 0.0, 0.0, 0.0, -0.51625, 1.74125, 0.18375
4.52294397354, 0.0, 0.0, -0.0, -3.84125, 3.7975, 0.70875, 0.0, 0.0, 0.0, -0.16625, 1.5925, 0.04375
4.57322311401, 0.0, 0.0, 0.0, -3.84125, 3.6575, 0.7875, 0.0, 0.0, 0.0, -0.4375, 1.88125, 0.46375
4.62342190742, 0.0, 0.0, -0.0, -3.675, 3.63125, 0.72625, 0.0, 0.0, 0.0, -0.37625, 1.6275, 0.28875
4.67375993729, 0.0, 0.0, 0.0, -4.13, 3.84125, 0.49, 0.0, 0.0, 0.0, -0.315, 1.93375, 0.5425
4.72409200668, 0.0, 0.0, -0.0, -3.78875, 3.64, 0.5075, 0.0, 0.0, 0.0, -0.4725, 1.75875, 0.3325
4.77428388596, 0.0, 0.0, -0.0, -3.80625, 3.68375, 0.665, 0.0, 0.0, 0.0, -0.25375, 2.03875, 0.3325
4.82448410988, 0.0, 0.0, -0.0, -3.99, 3.85875, 0.77, 0.0, 0.0, 0.0, -0.35, 1.84625, 0.35875
4.87463307381, 0.0, 0.0, -0.0, -4.06875, 3.745, 0.56, 0.0, 0.0, 0.0, -0.4025, 1.9075, 0.2975
4.92591691017, 0.0, 0.0, 0.0, -3.80625, 3.45625, 0.7175, 0.0, 0.0, 0.0, -0.175, 1.61, 0.55125
4.97634601593, 0.0, 0.0, -0.0, -4.22625, 3.70125, 0.7525, 0.0, 0.0, 0.0, -0.37625, 1.70625, 0.3325
5.02654099464, 0.0, 0.0, 0.0, -4.05125, 3.535, 0.84, 0.0, 0.0, 0.0, -0.28, 1.60125, 0.315
5.07672190666, 0.0, 0.0, 0.0, -3.92, 3.70125, 0.805, 0.0, 0.0, 0.0, -0.3325, 1.89, 0.27125
5.12692594528, 0.0, 0.0, -0.0, -3.92, 3.745, 0.76125, 0.0, 0.0, 0.0, -0.30625, 1.84625, 0.21875
5.1771709919, 0.0, 0.0, -0.0, -3.84125, 3.78875, 0.63875, 0.0, 0.0, 0.0, -0.4375, 1.70625, 0.48125
5.2274749279, 0.0, 0.0, 0.0, -4.15625, 3.68375, 0.56, 0.0, 0.0, 0.0, -0.2275, 1.75, 0.51625
5.27770709991, 0.0, 0.0, -0.0, -3.815, 3.6225, 0.55125, 0.0, 0.0, 0.0, -0.23625, 1.7675, 0.34125
5.32788395882, 0.0, 0.0, 0.0, -4.03375, 3.42125, 0.77875, 0.0, 0.0, 0.0, -0.2275, 1.6975, 0.455
5.37803006172, 0.0, 0.0, -0.0, -4.03375, 3.7625, 0.7525, 0.0, 0.0, 0.0, -0.2625, 1.70625, 0.315
5.42819404602, 0.0, 0.0, 0.0, -3.6575, 3.56125, 0.77875, 0.0, 0.0, 0.0, -0.105, 1.68875, 0.32375
5.47846293449, 0.0, 0.0, 0.0, -3.7975, 3.64875, 0.875, 0.0, 0.0, 0.0, -0.0875, 1.785, 0.4375
5.52872109413, 0.0, 0.0, -0.0, -3.85875, 3.50875, 0.72625, 0.0, 0.0, 0.0, -0.455, 1.7675, 0.455
5.57904696465, 0.0, 0.0, 0.0, -3.9375, 3.59625, 0.72625, 0.0, 0.0, 0.0, -0.0525, 1.56625, 0.56
5.62932491302, 0.0, 0.0, -0.0, -3.71, 3.7275, 0.7, 0.0, 0.0, 0.0, -0.1925, 1.8725, 0.35
5.67959094048, 0.0, 0.0, -0.0, -3.80625, 3.64875, 0.6825, 0.0, 0.0, 0.0, -0.35875, 1.68875, 0.1225
5.72987794876, 0.0, 0.0, -0.0, -3.885, 3.42125, 0.7175, 0.0, 0.0, 0.0, -0.1225, 1.61875, 0.0875
5.78017497063, 0.0, 0.0, 0.0, -3.59625, 3.4125, 0.805, 0.0, 0.0, 0.0, -0.0525, 1.65375, 0.16625
5.83053708076, 0.0, 0.0, -0.0, -3.89375, 3.43875, 0.72625, 0.0, 0.0, 0.0, -0.41125, 1.855, 0.42
5.88080596924, 0.0, -0.0, 0.0, -3.815, 3.36875, 0.805, 0.0, 0.0, 0.0, -0.4025, 1.8025, 0.28875
5.93108987808, 0.0, 0.0, -0.0, -3.9375, 3.57875, 0.735, 0.0, 0.0, 0.0, -0.315, 1.47875, 0.21
5.9812939167, 0.0, 0.0, -0.0, -3.98125, 3.5525, 0.69125, 0.0, 0.0, 0.0, -0.4025, 1.8025, 0.42875
6.0315220356, 0.0, 0.0, -0.0, -3.84125, 3.605, 0.595, 0.0, 0.0, 0.0, -0.2975, 1.8375, 0.32375
6.08182907104, 0.0, 0.0, -0.0, -3.78875, 3.4825, 0.6125, 0.0, 0.0, 0.0, 0.00875, 1.91625, 0.30625
6.13207292557, 0.0, 0.0, 0.0, -3.9725, 3.6575, 0.98875, 0.0, 0.0, 0.0, -0.0525, 1.8375, 0.3325
6.182336092, 0.0, 0.0, 0.0, -3.99, 3.6225, 0.84875, 0.0, 0.0, 0.0, -0.39375, 1.96875, 0.53375
6.23264098167, 0.0, 0.0, 0.0, -3.77125, 3.57875, 0.7875, 0.0, 0.0, 0.0, -0.315, 1.60125, 0.62125
6.28287601471, 0.0, 0.0, -0.0, -3.8325, 3.66625, 0.525, 0.0, 0.0, 0.0, -0.30625, 1.86375, 0.315
6.33315300941, 0.0, 0.0, -0.0, -3.89375, 3.49125, 0.72625, 0.0, 0.0, 0.0, -0.245, 2.02125, 0.4025
6.38348293304, 0.0, 0.0, -0.0, -4.01625, 3.84125, 0.70875, 0.0, 0.0, 0.0, -0.25375, 1.84625, 0.28
6.43391489983, 0.0, 0.0, 0.0, -3.98125, 3.7975, 0.84, 0.0, 0.0, 0.0, -0.2975, 1.82, -0.0525
6.48409700394, 0.0, 0.0, -0.0, -3.7275, 3.63125, 0.665, 0.0, 0.0, 0.0, -0.5425, 1.77625, 0.16625
6.5343170166, 0.0, 0.0, -0.0, -3.75375, 3.54375, 0.63, 0.0, 0.0, 0.0, -0.30625, 1.61875, 0.3325
6.5844669342, 0.0, 0.0, -0.0, -3.96375, 3.64, 0.70875, 0.0, 0.0, 0.0, -0.4025, 1.58375, 0.34125
6.63471102715, 0.0, -0.0, 0.0, -3.9725, 3.36, 0.91, 0.0, 0.0, 0.0, -0.06125, 1.75875, 0.49875
6.68503499031, 0.0, 0.0, 0.0, -3.745, 3.49125, 0.9275, 0.0, 0.0, 0.0, -0.245, 1.47, 0.5775
6.73528790474, 0.0, 0.0, 0.0, -3.9725, 3.78, 0.81375, 0.0, 0.0, 0.0, -0.18375, 1.575, 0.30625
6.78560209274, 0.0, 0.0, 0.0, -3.82375, 3.45625, 0.805, 0.0, 0.0, 0.0, -0.16625, 1.51375, 0.49
6.83587193489, 0.0, 0.0, -0.0, -3.71, 3.54375, 0.7525, 0.0, 0.0, 0.0, -0.28875, 1.9775, 0.39375
6.88607001305, 0.0, 0.0, 0.0, -3.8675, 3.57875, 0.74375, 0.0, 0.0, 0.0, -0.32375, 1.75875, 0.72625
6.93627905846, 0.0, 0.0, 0.0, -3.98125, 3.89375, 0.76125, 0.0, 0.0, 0.0, -0.49875, 1.68875, 0.67375
6.98641300201, 0.0, 0.0, 0.0, -3.6225, 3.56125, 0.91, 0.0, 0.0, 0.0, -0.21, 1.65375, 0.3675
7.03667497635, 0.0, 0.0, -0.0, -3.9375, 3.66625, 0.77, 0.0, 0.0, 0.0, -0.28875, 2.135, 0.32375
7.08699202538, 0.0, 0.0, 0.0, -3.78, 3.49125, 0.805, 0.0, 0.0, 0.0, -0.46375, 1.58375, 0.23625
7.13720989227, 0.0, 0.0, 0.0, -3.8325, 3.43875, 0.805, 0.0, 0.0, 0.0, -0.42, 1.60125, 0.27125
7.18746399879, 0.0, 0.0, -0.0, -3.87625, 3.40375, 0.7, 0.0, 0.0, 0.0, -0.3675, 1.61, 0.2975
7.23762702942, 0.0, 0.0, -0.0, -4.05125, 3.465, 0.7, 0.0, 0.0, 0.0, -0.39375, 1.575, 0.11375
7.28785991669, 0.0, 0.0, 0.0, -3.85, 3.5525, 0.7875, 0.0, 0.0, 0.0, -0.27125, 1.77625, 0.55125
7.33811688423, 0.0, 0.0, 0.0, -3.73625, 3.5, 0.79625, 0.0, 0.0, 0.0, -0.14, 1.74125, 0.30625
7.38827395439, 0.0, 0.0, 0.0, -3.605, 3.4125, 0.7875, 0.0, 0.0, 0.0, -0.39375, 1.54875, 0.27125
7.43858098984, 0.0, 0.0, 0.0, -3.89375, 3.5175, 1.015, 0.0, 0.0, 0.0, -0.56, 1.47875, 0.56875
7.48883199692, 0.0, 0.0, 0.0, -4.025, 3.43875, 0.81375, 0.0, 0.0, 0.0, -0.39375, 1.81125, 0.44625
7.53917598724, 0.0, 0.0, 0.0, -3.99875, 4.05125, 0.84875, 0.0, 0.0, 0.0, -0.55125, 2.14375, 0.62125
7.58960795403, 0.0, 0.0, 0.0, -3.7975, 5.6, 2.0825, 0.0, 0.0, 0.0, -0.44625, 3.7975, 1.435
7.63988399506, 0.0, 0.0, 0.0, -4.025, 7.7, 2.835, 0.0, 0.0, 0.0, -0.86625, 5.845, 3.185
7.69039487839, 0.0, 0.0, 0.0, -3.52625, 11.4625, 4.9525, 0.0, 0.0, 0.0, -0.02625, 9.59, 5.15375
7.74074292183, 0.0, 0.0, 0.0, -2.8875, 16.4675, 7.1925, 0.0, 0.0, 0.0, 0.28, 12.76625, 7.00875
7.79105091095, 0.0, 0.0, 0.0, -2.09125, 19.4425, 7.67375, 0.0, 0.0, 0.0, 1.72375, 16.8175, 8.365
7.84122204781, 0.0, 0.0, 0.0, -1.88125, 23.31, 9.03, 0.0, 0.0, 0.0, 2.59875, 20.86, 9.80875
7.8914129734, 0.0, 0.0, 0.0, -0.2975, 26.34625, 10.045, 0.0, 0.0, 0.0, 3.29, 24.12375, 10.7625
7.94168591499, 0.0, 0.0, 0.0, 0.5775, 30.6425, 10.4825, 0.0, 0.0, 0.0, 4.52375, 28.35, 11.92625
7.99184799194, 0.0, 0.0, 0.0, 1.37375, 33.38125, 11.1475, 0.0, 0.0, 0.0, 5.3725, 30.80875, 12.6
8.04209709167, 0.0, 0.0, 0.0, 2.02125, 36.575, 12.18875, 0.0, 0.0, 0.0, 6.43125, 33.97625, 14.0525
8.09228992462, 0.0, 0.0, 0.0, 3.57, 40.7575, 13.25625, 0.0, 0.0, 0.0, 7.67375, 37.8175, 15.28625
8.14246702194, 0.0, 0.0, 0.0, 4.5325, 43.46125, 13.64125, 0.0, 0.0, 0.0, 8.56625, 40.74, 16.07375
8.19268488884, 0.0, 0.0, 0.0, 5.565, 46.9525, 14.32375, 0.0, 0.0, 0.0, 9.8175, 44.02125, 16.63375
8.2429049015, 0.0, 0.0, 0.0, 6.37, 47.3375, 14.02625, 0.0, 0.0, 0.0, 10.7975, 43.715, 16.485
8.29312109947, 0.0, 0.0, 0.0, 5.74, 45.43, 14.035, 0.0, 0.0, 0.0, 9.7125, 41.9125, 16.0825
8.343282938, 0.0, 0.0, 0.0, 4.1825, 38.99875, 13.685, 0.0, 0.0, 0.0, 8.12, 35.6125, 15.44375
8.39347791672, 0.0, 0.0, 0.0, 0.1225, 33.53875, 13.4925, 0.0, 0.0, 0.0, 6.265, 30.51125, 15.04125
8.44365310669, 0.0, 0.0, 0.0, 2.52875, 31.815, 14.105, 0.0, 0.0, 0.0, 6.3875, 28.35, 15.37375
8.49380087852, 0.0, 0.0, 0.0, 2.0475, 29.2075, 15.81125, 0.0, 0.0, 0.0, 6.08125, 26.03125, 16.8875
8.54410910606, 0.0, 0.0, 0.0, 2.45, 29.1725, 16.4675, 0.0, 0.0, 0.0, 6.37, 25.7425, 17.9025
8.59432601929, 0.0, 0.0, 0.0, 3.01875, 29.16375, 18.41875, 0.0, 0.0, 0.0, 6.74625, 25.64625, 19.87125
8.64450502396, 0.0, 0.0, 0.0, 3.82375, 29.40875, 20.62375, 0.0, 0.0, 0.0, 7.49, 25.69, 21.83125
8.69481396675, 0.0, 0.0, 0.0, 4.0075, 28.23625, 22.11125, 0.0, 0.0, 0.0, 7.4025, 24.57875, 23.3275
8.74509501457, 0.0, 0.0, 0.0, 4.0775, 25.96125, 23.7475, 0.0, 0.0, 0.0, 7.58625, 21.77, 24.38625
8.79534006119, 0.0, 0.0, 0.0, 3.84125, 22.95125, 24.4125, 0.0, 0.0, 0.0, 7.1575, 18.61125, 25.22625
8.84556698799, 0.0, 0.0, 0.0, 3.3075, 17.5525, 24.64, 0.0, 0.0, 0.0, 6.545, 13.02875, 24.57875
8.89572095871, 0.0, 0.0, 0.0, 2.6075, 12.24125, 24.1675, 0.0, 0.0, 0.0, 5.87125, 7.42, 24.3425
8.94598197937, 0.0, 0.0, 0.0, 2.1875, 8.47875, 24.2025, 0.0, 0.0, 0.0, 5.4075, 3.745, 23.38875
8.99619793892, 0.0, -0.0, 0.0, 1.72375, 1.995, 23.38875, 0.0, 0.0, 0.0, 4.89125, -2.6075, 22.155
9.04641008377, 0.0, -0.0, 0.0, 1.09375, -4.76, 21.805, 0.0, 0.0, 0.0, 3.9725, -9.275, 20.32625
9.09673404694, 0.0, -0.0, 0.0, 0.455, -11.865, 20.29125, 0.0, 0.0, 0.0, 3.21125, -16.26625, 18.47125
9.14695096016, 0.0, -0.0, 0.0, -0.1575, -17.1325, 19.52125, 0.0, 0.0, 0.0, 2.87, -21.1925, 16.98375
9.19716095924, 0.0, -0.0, 0.0, -0.65625, -23.6775, 17.99, 0.0, 0.0, 0.0, 2.44125, -27.85125, 15.1375
9.24735593796, 0.0, -0.0, 0.0, -0.74375, -29.3825, 16.9575, 0.0, 0.0, 0.0, 2.03875, -33.005, 13.65
9.29754400253, 0.0, -0.0, 0.0, -0.7525, -32.0775, 16.45875, 0.0, 0.0, 0.0, 1.84625, -35.95375, 13.22125
9.34775304794, 0.0, -0.0, 0.0, -0.175, -35.665, 15.79375, 0.0, 0.0, 0.0, 2.31, -39.5675, 12.4425
9.39792490005, 0.0, -0.0, 0.0, 0.18375, -37.77375, 15.16375, 0.0, 0.0, 0.0, 2.98375, -40.97625, 11.445
9.44815587997, 0.0, -0.0, 0.0, 0.88375, -38.26375, 14.56875, 0.0, 0.0, 0.0, 3.5, -41.1075, 11.0075
9.49831390381, 0.0, -0.0, 0.0, 1.8025, -37.54625, 13.86875, 0.0, 0.0, 0.0, 4.3925, -41.08125, 10.1675
9.54857110977, 0.0, -0.0, 0.0, 2.205, -37.87, 13.37, 0.0, 0.0, 0.0, 4.7425, -41.43125, 9.98375
9.59877705574, 0.0, -0.0, 0.0, 2.19625, -39.165, 12.285, 0.0, 0.0, 0.0, 4.48875, -42.245, 8.575
9.64897489548, 0.0, -0.0, 0.0, 1.96875, -39.6725, 11.865, 0.0, 0.0, 0.0, 4.305, -42.74375, 8.25125
9.69923400879, 0.0, -0.0, 0.0, 1.295, -40.25875, 11.2, 0.0, 0.0, 0.0, 4.06875, -43.39125, 7.58625
9.74946188927, 0.0, -0.0, 0.0, 0.83125, -40.8275, 10.7625, 0.0, 0.0, 0.0, 3.64875, -43.645, 6.95625
9.79979491234, 0.0, -0.0, 0.0, -0.1925, -41.2825, 9.80875, 0.0, 0.0, 0.0, 2.61625, -44.16125, 6.18625
9.84999799728, 0.0, -0.0, 0.0, -1.085, -41.09, 9.065, 0.0, 0.0, 0.0, 1.56625, -44.19625, 5.90625
9.90018606186, 0.0, -0.0, 0.0, -1.5575, -41.125, 8.65375, 0.0, 0.0, 0.0, 0.8925, -43.63625, 5.0925
9.95049500465, 0.0, -0.0, 0.0, -2.87875, -39.75125, 7.84, 0.0, 0.0, 0.0, 0.02625, -42.65625, 4.305
10.0006918907, 0.0, -0.0, 0.0, -3.5175, -37.8525, 7.2975, 0.0, 0.0, 0.0, -0.7, -40.495, 3.99875
10.0508849621, 0.0, -0.0, 0.0, -4.22625, -34.99125, 7.4725, 0.0, 0.0, 0.0, -1.53125, -37.35375, 4.1475
10.1011579037, 0.0, -0.0, 0.0, -4.62, -32.68125, 7.18375, 0.0, 0.0, 0.0, -1.77625, -34.79, 4.31375
10.151403904, -0.0, -0.0, 0.0, -5.1275, -29.98625, 7.175, 0.0, 0.0, 0.0, -2.4675, -32.0775, 4.27875
10.2016179562, -0.0, -0.0, 0.0, -5.7575, -25.9, 6.895, 0.0, 0.0, 0.0, -3.03625, -28.07875, 4.375
10.2518510818, -0.0, -0.0, 0.0, -6.58875, -21.84875, 6.755, 0.0, 0.0, 0.0, -3.36, -24.17625, 4.2525
10.3020250797, -0.0, -0.0, 0.0, -6.88625, -17.99, 6.22125, 0.0, 0.0, 0.0, -4.03375, -20.1075, 4.24375
10.3522229195, -0.0, -0.0, 0.0, -7.13125, -14.875, 6.22125, 0.0, 0.0, 0.0, -4.13, -16.89625, 4.38375
10.4024479389, -0.0, -0.0, 0.0, -7.6125, -11.34, 5.88875, 0.0, 0.0, 0.0, -4.10375, -13.48375, 4.41
10.4527170658, -0.0, -0.0, 0.0, -7.60375, -5.7925, 5.6175, 0.0, 0.0, 0.0, -4.34, -7.76125, 4.69875
10.5029559135, -0.0, -0.0, 0.0, -7.67375, -2.59875, 5.62625, 0.0, 0.0, 0.0, -4.305, -4.24375, 4.41
10.5532579422, -0.0, -0.0, 0.0, -7.97125, 2.205, 5.20625, 0.0, 0.0, 0.0, -4.725, 0.28875, 4.585
10.603482008, -0.0, 0.0, 0.0, -8.16375, 5.1625, 4.99625, 0.0, 0.0, 0.0, -4.6725, 3.15875, 4.4975
10.6553189754, -0.0, 0.0, 0.0, -8.365, 7.0175, 4.5325, 0.0, 0.0, 0.0, -5.17125, 4.9175, 4.27
10.7055590153, -0.0, 0.0, 0.0, -8.89, 9.44125, 4.06875, 0.0, 0.0, 0.0, -5.32, 7.44625, 3.96375
10.7557899952, -0.0, 0.0, 0.0, -9.0125, 12.59125, 4.01625, 0.0, 0.0, 0.0, -5.22375, 10.815, 3.77125
10.8060019016, -0.0, 0.0, 0.0, -8.82875, 14.95375, 3.15875, 0.0, 0.0, 0.0, -5.0225, 13.22125, 3.955
10.8562231064, -0.0, 0.0, 0.0, -8.155, 18.1125, 3.15, 0.0, 0.0, 0.0, -4.445, 16.45, 4.06
10.9064800739, -0.0, 0.0, 0.0, -8.18125, 19.80125, 2.66875, 0.0, 0.0, 0.0, -4.55875, 17.9725, 3.28125
10.9567229748, -0.0, 0.0, 0.0, -8.19, 20.3175, 2.49375, 0.0, 0.0, 0.0, -4.31375, 18.80375, 3.29
11.0069489479, -0.0, 0.0, 0.0, -7.83125, 21.97125, 2.42375, 0.0, 0.0, 0.0, -3.7275, 20.2475, 3.255
11.0572180748, -0.0, 0.0, 0.0, -7.21, 22.54, 2.1, 0.0, 0.0, 0.0, -3.52625, 21.0, 2.75625
11.1073861122, -0.0, 0.0, 0.0, -6.97375, 23.02125, 1.82875, 0.0, 0.0, 0.0, -3.01875, 21.035, 2.4325
11.1575698853, -0.0, 0.0, 0.0, -6.6325, 22.995, 1.74125, 0.0, 0.0, 0.0, -2.42375, 21.28, 2.54625
11.2077760696, -0.0, 0.0, 0.0, -6.195, 23.03875, 1.435, 0.0, 0.0, 0.0, -2.26625, 21.11375, 2.2225
11.2579929829, -0.0, 0.0, 0.0, -5.7225, 22.33, 1.2425, 0.0, 0.0, 0.0, -2.0475, 20.11625, 1.96875
11.3082079887, -0.0, 0.0, 0.0, -5.55625, 21.5425, 1.1725, 0.0, 0.0, 0.0, -1.60125, 19.39, 1.89
11.3584210873, 0.0, 0.0, 0.0, -4.55875, 19.95, 0.91, 0.0, 0.0, 0.0, -0.6125, 18.24375, 1.6275
11.4086780548, 0.0, 0.0, 0.0, -4.4625, 19.29375, 0.93625, 0.0, 0.0, 0.0, -0.28875, 17.01875, 1.4
11.4589080811, 0.0, 0.0, 0.0, -3.7975, 17.4125, 0.81375, 0.0, 0.0, 0.0, 0.175, 15.1375, 1.47
11.5090889931, 0.0, 0.0, 0.0, -3.7275, 16.16125, 0.60375, 0.0, 0.0, 0.0, 0.4375, 14.2975, 1.05875
11.5593481064, 0.0, 0.0, 0.0, -3.4125, 14.28875, 0.6125, 0.0, 0.0, 0.0, 0.76125, 11.87375, 0.7
11.6103909016, 0.0, 0.0, -0.0, -2.8875, 12.20625, 0.23625, 0.0, 0.0, 0.0, 0.97125, 9.91375, 0.2625
11.6608068943, 0.0, 0.0, -0.0, -2.40625, 10.28125, 0.1925, 0.0, 0.0, 0.0, 1.51375, 8.3475, 0.245
11.7109930515, 0.0, 0.0, -0.0, -2.4325, 8.1025, -0.14, 0.0, 0.0, 0.0, 1.715, 5.8275, -0.1225
11.7612020969, 0.0, 0.0, -0.0, -2.16125, 6.25625, 0.06125, 0.0, 0.0, 0.0, 1.82875, 4.3225, -0.105
11.8114109039, 0.0, 0.0, -0.0, -2.135, 4.47125, -0.00875, 0.0, 0.0, 0.0, 1.68, 2.625, -0.4725
11.8617460728, 0.0, -0.0, -0.0, -1.925, 2.0475, -0.2625, 0.0, 0.0, 0.0, 1.93375, 0.1225, -0.7875
11.9121670723, 0.0, -0.0, -0.0, -1.54875, 0.7875, -0.315, 0.0, 0.0, 0.0, 1.95125, -1.4, -1.05875
11.9624729156, 0.0, -0.0, -0.0, -1.505, -1.16375, -0.39375, 0.0, 0.0, 0.0, 2.1, -3.465, -1.1025
12.0128779411, 0.0, -0.0, -0.0, -1.5225, -2.49375, -0.53375, 0.0, 0.0, 0.0, 2.0475, -4.45375, -1.07625
12.063117981, 0.0, -0.0, -0.0, -1.60125, -3.49125, -0.53375, 0.0, 0.0, 0.0, 1.93375, -5.6, -1.3475
12.1133890152, 0.0, -0.0, -0.0, -1.82, -5.075, -0.6125, 0.0, 0.0, 0.0, 1.58375, -7.09625, -1.575
12.1637198925, 0.0, -0.0, -0.0, -1.96, -5.7225, -0.91875, 0.0, 0.0, 0.0, 1.79375, -7.665, -1.72375
12.2139210701, 0.0, -0.0, -0.0, -2.24, -6.44, -1.0675, 0.0, 0.0, 0.0, 1.42625, -8.65375, -2.1525
12.2642190456, 0.0, -0.0, -0.0, -2.345, -7.16625, -0.83125, 0.0, 0.0, 0.0, 1.19875, -9.02125, -1.8375
12.314426899, 0.0, -0.0, -0.0, -2.45, -7.25375, -1.05875, 0.0, 0.0, 0.0, 0.8575, -9.40625, -2.23125
12.3646519184, 0.0, -0.0, -0.0, -2.7475, -7.49, -0.9275, 0.0, 0.0, 0.0, 1.12875, -9.66, -2.03875
12.4147999287, 0.0, -0.0, -0.0, -2.975, -7.55125, -1.1725, 0.0, 0.0, 0.0, 0.4025, -9.33625, -2.0475
12.4651470184, 0.0, -0.0, -0.0, -3.33375, -7.28, -1.14625, 0.0, 0.0, 0.0, 0.07875, -8.9775, -1.9425
12.5156049728, 0.0, -0.0, -0.0, -3.52625, -6.69375, -1.2075, 0.0, 0.0, 0.0, 0.04375, -8.365, -2.345
12.5660150051, 0.0, -0.0, -0.0, -3.815, -6.32625, -1.21625, 0.0, 0.0, 0.0, -0.23625, -7.90125, -2.21375
12.6164619923, 0.0, -0.0, -0.0, -3.89375, -5.15375, -1.4, 0.0, 0.0, 0.0, -0.62125, -6.895, -2.7475
12.6668250561, 0.0, -0.0, -0.0, -4.15625, -4.78625, -1.5225, 0.0, 0.0, 0.0, -0.7175, -6.335, -2.485
12.7171370983, 0.0, -0.0, -0.0, -4.2525, -3.325, -1.82, 0.0, 0.0, 0.0, -0.60375, -4.75125, -2.73
12.7673420906, 0.0, -0.0, -0.0, -4.4625, -2.065, -1.82, 0.0, 0.0, 0.0, -1.07625, -3.36, -2.28375
12.8175520897, -0.0, -0.0, -0.0, -4.6725, -1.3125, -1.9075, 0.0, 0.0, 0.0, -1.23375, -2.80875, -2.555
12.8677949905, -0.0, -0.0, -0.0, -4.655, 0.3675, -0.07, 0.0, 0.0, 0.0, -1.1725, -1.3825, -2.49375
12.9182310104, -0.0, -0.0, -0.0, -4.80375, 1.1725, -2.1, 0.0, 0.0, 0.0, -1.33875, -0.25375, -2.63375
12.9684569836, -0.0, -0.0, -0.0, -4.9875, 2.49375, -2.24875, 0.0, 0.0, 0.0, -1.26, 0.98, -2.87
13.0187261105, -0.0, 0.0, -0.0, -4.90875, 3.82375, -2.31875, 0.0, 0.0, 0.0, -1.1725, 2.52875, -2.80875
13.0690391064, -0.0, 0.0, -0.0, -5.01375, 4.8125, -2.3975, 0.0, 0.0, 0.0, -1.1725, 3.42125, -2.52875
13.1192600727, -0.0, 0.0, -0.0, -4.90875, 6.04625, -2.31875, 0.0, 0.0, 0.0, -1.1025, 4.5325, -2.66
13.169451952, -0.0, 0.0, -0.0, -4.76875, 7.4025, -2.51125, 0.0, 0.0, 0.0, -0.875, 5.74, -2.65125
13.2197039127, 0.0, 0.0, -0.0, -4.54125, 7.97125, -2.66875, 0.0, 0.0, 0.0, -0.97125, 6.41375, -2.56375
13.2699739933, 0.0, 0.0, -0.0, -4.305, 8.93375, -2.52875, 0.0, 0.0, 0.0, -0.91875, 7.28, -2.73875
13.3201849461, -0.0, 0.0, -0.0, -4.64625, 9.17, -2.695, 0.0, 0.0, 0.0, -0.60375, 7.70875, -2.72125
13.3704259396, 0.0, 0.0, -0.0, -2.2575, 9.89625, -2.625, 0.0, 0.0, 0.0, -0.6475, 8.0325, -2.61625
13.4206619263, 0.0, 0.0, -0.0, -4.13875, 10.08875, -2.91375, 0.0, 0.0, 0.0, -0.48125, 6.7375, -2.59875
13.4709010124, 0.0, 0.0, -0.0, -4.165, 10.7975, -2.835, 0.0, 0.0, 0.0, -0.30625, 9.02125, -2.79125
13.5210809708, 0.0, 0.0, -0.0, -4.13, 10.6575, -2.8, 0.0, 0.0, 0.0, -0.14875, 9.1875, -2.6775
13.5712630749, 0.0, 0.0, -0.0, -3.885, 10.70125, -2.765, 0.0, 0.0, 0.0, -0.2625, 11.1475, -2.8
13.6214289665, 0.0, 0.0, -0.0, -3.96375, 10.49125, -2.68625, 0.0, 0.0, 0.0, 0.16625, 8.91625, -2.42375
13.6722800732, 0.0, 0.0, -0.0, -3.68375, 10.29, -2.73875, 0.0, 0.0, 0.0, -0.1575, 8.8375, -2.8175
13.7230229378, 0.0, 0.0, -0.0, -3.64875, 9.8525, -2.65125, 0.0, 0.0, 0.0, -0.06125, 8.1025, -2.51125
13.7733678818, 0.0, 0.0, -0.0, -3.5175, 9.5025, -2.765, 0.0, 0.0, 0.0, 0.1925, 7.91875, -2.66
13.8235929012, 0.0, 0.0, -0.0, -3.36875, 8.8025, -2.56375, 0.0, 0.0, 0.0, 0.07875, 7.27125, -2.6075
13.8739628792, 0.0, 0.0, -0.0, -3.21125, 8.4175, -2.66875, 0.0, 0.0, 0.0, 0.32375, 6.615, -2.6075
13.9241418839, 0.0, 0.0, -0.0, -3.45625, 7.95375, -2.52, 0.0, 0.0, 0.0, 0.3325, 6.1075, -2.5725
13.9743070602, 0.0, 0.0, -0.0, -3.22, 7.09625, -2.70375, 0.0, 0.0, 0.0, 0.4025, 5.0225, -2.75625
14.0244810581, 0.0, 0.0, -0.0, -3.05375, 6.3175, -2.45875, 0.0, 0.0, 0.0, 0.4025, 4.6725, -2.49375
14.0747380257, 0.0, 0.0, -0.0, -3.2375, 5.55625, -2.5375, 0.0, 0.0, 0.0, 0.86625, 3.59625, -2.72125
14.1250898838, 0.0, 0.0, -0.0, -3.185, 5.18875, -2.30125, 0.0, 0.0, 0.0, 0.44625, 3.1325, -2.59875
14.1752550602, 0.0, 0.0, -0.0, -3.22875, 4.13, -2.31, 0.0, 0.0, 0.0, 0.81375, 2.26625, -2.73
14.225425005, 0.0, -0.0, -0.0, -3.0275, 3.15, -2.17875, 0.0, 0.0, 0.0, 0.56, 1.6275, -2.31875
14.2756400108, 0.0, -0.0, -0.0, -3.01, 2.8525, -2.17, 0.0, 0.0, 0.0, 0.74375, 1.05875, -2.52875
14.325961113, 0.0, -0.0, -0.0, -3.115, 0.0175, -2.23125, 0.0, 0.0, 0.0, 0.6125, 0.455, -2.37125
14.3763799667, 0.0, -0.0, -0.0, -2.72125, 1.40875, -2.1875, 0.0, 0.0, 0.0, 0.385, -0.04375, -2.625
14.4267590046, 0.0, -0.0, -0.0, -3.0975, 1.12875, -2.14375, 0.0, 0.0, 0.0, 0.58625, -0.48125, -2.52
14.4772439003, 0.0, -0.0, -0.0, -3.1325, 0.39375, -1.91625, 0.0, 0.0, 0.0, 0.245, -0.88375, -2.63375
14.5277490616, 0.0, -0.0, -0.0, -2.91375, 0.28875, -2.12625, 0.0, 0.0, 0.0, 0.42, -1.25125, -2.56375
14.5779230595, 0.0, -0.0, -0.0, -3.21125, -0.11375, -1.89, 0.0, 0.0, 0.0, 0.51625, -1.82875, -2.54625
14.628164053, 0.0, -0.0, -0.0, -3.03625, -0.28, -1.995, 0.0, 0.0, 0.0, 0.51625, -1.8725, -2.54625
14.6786119938, 0.0, -0.0, -0.0, -3.40375, -0.1925, -1.88125, 0.0, 0.0, 0.0, 0.1225, -2.03875, -2.52875
14.7290070057, 0.0, -0.0, -0.0, -3.3775, -0.4375, -1.91625, 0.0, 0.0, 0.0, 0.28, -1.93375, -2.38875
14.7792649269, 0.0, -0.0, -0.0, -3.185, -0.44625, -1.6625, 0.0, 0.0, 0.0, 0.58625, -2.0475, -2.485
14.8297040462, 0.0, -0.0, -0.0, -3.36875, -0.02625, -1.98625, 0.0, 0.0, 0.0, 0.3325, -1.65375, -2.3625
14.8799259663, 0.0, -0.0, -0.0, -3.43, 0.02625, -1.67125, 0.0, 0.0, 0.0, 0.20125, -1.42625, -2.5025
14.9304659367, 0.0, -0.0, -0.0, -3.40375, 0.49875, -1.88125, 0.0, 0.0, 0.0, 0.32375, -1.295, -2.3275
14.9807651043, 0.0, -0.0, -0.0, -3.36, 1.015, -1.8025, 0.0, 0.0, 0.0, 0.0875, -0.91875, -2.33625
15.0311141014, 0.0, -0.0, -0.0, -3.3775, 0.97125, -1.8725, 0.0, 0.0, 0.0, 0.1925, -0.4725, -2.5725
15.0814828873, 0.0, -0.0, -0.0, -3.3425, 1.4525, -1.95125, 0.0, 0.0, 0.0, 0.2275, -0.09625, -2.28375
15.1317141056, 0.0, -0.0, -0.0, -3.29, 1.855, -2.02125, 0.0, 0.0, 0.0, 0.0175, 0.42875, -2.26625
15.1821649075, 0.0, -0.0, -0.0, -3.43875, 2.2925, -1.995, 0.0, 0.0, 0.0, 0.28875, 0.7525, -2.58125
15.232405901, 0.0, -0.0, -0.0, -3.22, 2.695, -1.925, 0.0, 0.0, 0.0, 0.0525, 1.12, -2.52
15.2826299667, 0.0, -0.0, -0.0, -3.42125, 3.3775, -2.03875, 0.0, 0.0, 0.0, -0.02625, 1.79375, -2.45875
15.3328769207, 0.0, 0.0, -0.0, -3.465, 3.6925, -2.00375, 0.0, 0.0, 0.0, 0.06125, 2.14375, -2.4675
15.3830659389, 0.0, 0.0, -0.0, -3.9025, 4.03375, -2.17, 0.0, 0.0, 0.0, 0.14, 2.66, -2.415
15.4332590103, 0.0, 0.0, -0.0, -3.5875, 4.68125, -2.19625, 0.0, 0.0, 0.0, 0.37625, 3.08, -2.24
15.4835290909, 0.0, 0.0, -0.0, -3.64, 5.005, -2.0825, 0.0, 0.0, 0.0, 0.0875, 3.49125, -0.07875
15.5337560177, 0.0, 0.0, -0.0, -3.5875, 5.36375, -2.19625, 0.0, 0.0, 0.0, 2.21375, 3.50875, -2.66
15.5839929581, 0.0, 0.0, -0.0, -3.61375, 5.53, -2.37125, 0.0, 0.0, 0.0, 0.02625, 4.17375, -2.37125
15.6343150139, 0.0, 0.0, -0.0, -4.0075, 6.125, -2.33625, 0.0, 0.0, 0.0, 0.06125, 4.34875, -2.2225
15.6845829487, 0.0, 0.0, -0.0, -3.70125, 6.37875, -2.21375, 0.0, 0.0, 0.0, 0.14, 4.57625, -2.56375
15.7347650528, 0.0, 0.0, -0.0, -3.85875, 6.405, -2.205, 0.0, 0.0, 0.0, -0.23625, 4.68125, -2.38875
15.7849750519, 0.0, 0.0, -0.0, -3.77125, 6.48375, -2.17, 0.0, 0.0, 0.0, 0.06125, 4.9, -2.38
15.8351559639, 0.0, 0.0, -0.0, -3.85, 6.72875, -2.3975, 0.0, 0.0, 0.0, -0.07875, 5.13625, -2.59
15.8853359222, 0.0, 0.0, -0.0, -3.64, 6.7375, -2.52875, 0.0, 0.0, 0.0, -0.06125, 4.9875, -2.695
15.9355249405, 0.0, 0.0, -0.0, -3.9375, 6.53625, -2.3975, 0.0, 0.0, 0.0, -0.32375, 5.01375, -2.5025
15.9858129025, 0.0, 0.0, -0.0, -4.095, 6.60625, -2.3275, 0.0, 0.0, 0.0, -0.18375, 4.76, -2.73875
16.0360190868, 0.0, 0.0, -0.0, -3.84125, 6.4225, -2.2925, 0.0, 0.0, 0.0, 0.00875, 4.6025, -2.56375
16.0862989426, 0.0, 0.0, -0.0, -3.80625, 6.2125, -2.555, 0.0, 0.0, 0.0, -0.06125, 4.54125, -2.45
16.1365659237, 0.0, 0.0, -0.0, -3.92, 5.97625, -2.59, 0.0, 0.0, 0.0, -0.5075, 4.3225, -2.84375
16.186923027, 0.0, 0.0, -0.0, -3.91125, 5.83625, -2.45875, 0.0, 0.0, 0.0, -0.13125, 4.19125, -2.68625
16.2371070385, 0.0, 0.0, -0.0, -3.85875, 5.66125, -2.345, 0.0, 0.0, 0.0, -0.32375, 3.99875, -2.6075
16.2873399258, 0.0, 0.0, -0.0, -4.095, 5.48625, -2.3975, 0.0, 0.0, 0.0, -0.13125, 4.10375, -2.52
16.337528944, 0.0, 0.0, -0.0, -3.85, 4.85625, -2.35375, 0.0, 0.0, 0.0, -0.315, 3.5175, -2.7475
16.3877160549, 0.0, 0.0, -0.0, -3.77125, 4.7075, -2.3275, 0.0, 0.0, 0.0, -0.175, 3.24625, -2.4675
16.4379460812, 0.0, 0.0, -0.0, -3.70125, 4.62, -2.38875, 0.0, 0.0, 0.0, -0.2625, 2.9575, -2.4675
16.4881689548, 0.0, 0.0, -0.0, -3.6225, 4.06875, -2.52875, 0.0, 0.0, 0.0, -0.00875, 2.31, -2.9225
16.5384290218, 0.0, 0.0, -0.0, -3.5875, 3.94625, -2.415, 0.0, 0.0, 0.0, -0.105, 2.065, -2.905
16.5887041092, 0.0, 0.0, -0.0, -3.78, 3.68375, -2.31, 0.0, 0.0, 0.0, -0.00875, 2.0475, -2.555
16.6389698982, 0.0, 0.0, -0.0, -3.92, 3.66625, -2.42375, 0.0, 0.0, 0.0, -0.02625, 1.785, -2.8525
16.6891639233, 0.0, -0.0, -0.0, -3.70125, 3.31625, -2.38875, 0.0, 0.0, 0.0, 0.00875, 1.84625, -2.835
16.7393810749, 0.0, -0.0, -0.0, -3.5525, 3.0275, -2.3975, 0.0, 0.0, 0.0, 0.14, 1.435, -2.68625
16.789757967, 0.0, -0.0, -0.0, -3.73625, 2.96625, -2.5725, 0.0, 0.0, 0.0, 0.20125, 1.3125, -2.905
16.8401310444, 0.0, -0.0, -0.0, -3.29875, 2.47625, -2.5025, 0.0, 0.0, 0.0, 0.1225, 1.30375, -2.835
16.890914917, 0.0, -0.0, -0.0, -3.54375, 2.59, -2.4675, 0.0, 0.0, 0.0, 0.25375, 1.11125, -2.835
16.9411571026, 0.0, -0.0, -0.0, -3.5875, 2.45, -2.485, 0.0, 0.0, 0.0, 0.2275, 0.84, -3.01875
16.9913420677, 0.0, -0.0, -0.0, -3.0625, 2.31, -2.695, 0.0, 0.0, 0.0, 0.385, 1.04125, -3.1675
17.0415968895, -0.0, 0.0, -0.0, -5.075, 2.3975, -2.45, 0.0, 0.0, 0.0, -6.685, 2.345, -4.05125
17.0918190479, -0.0, 0.0, -0.0, -18.34875, 7.91875, -7.14, 0.0, 0.0, 0.0, -8.3125, 8.26875, -6.92125
17.1420090199, -0.0, 0.0, -0.0, -18.41875, 7.79625, -6.4575, 0.0, 0.0, 0.0, -14.44625, 6.25625, -6.85125
17.1922669411, -0.0, 0.0, -0.0, -15.77625, 7.0, -7.49875, 0.0, 0.0, 0.0, -10.6575, 5.73125, -7.25375
17.2424910069, -0.0, 0.0, -0.0, -13.4225, 7.2625, -7.14875, 0.0, 0.0, 0.0, -12.285, 5.74, -7.02625
17.292771101, -0.0, 0.0, -0.0, -14.79625, 6.18625, -7.28, 0.0, 0.0, 0.0, -11.96125, 5.53, -6.90375
17.3430860043, -0.0, 0.0, -0.0, -10.94625, 5.81875, -5.87125, 0.0, 0.0, 0.0, -8.46125, 4.48, -6.72
17.3932840824, -0.0, -0.0, -0.0, -8.42625, 1.70625, -6.44875, 0.0, 0.0, 0.0, -5.0925, 0.51625, -6.0725
17.4436509609, -0.0, -0.0, -0.0, -7.5075, 0.805, -4.47125, 0.0, 0.0, 0.0, -4.27875, -1.00625, -5.67
17.4938499928, 0.0, -0.0, -0.0, -4.27, -3.66625, -3.75375, 0.0, 0.0, 0.0, -0.63, -5.32875, -5.20625
17.544123888, 0.0, -0.0, -0.0, -3.07125, -6.1425, -3.185, 0.0, 0.0, 0.0, -0.0875, -8.0675, -4.80375
17.5943338871, -0.0, -0.0, -0.0, -8.75, -3.5875, -2.6425, 0.0, 0.0, 0.0, -5.36375, -5.04, -4.4975
17.6445300579, -0.0, 0.0, -0.0, -20.65, 7.34125, -2.12625, 0.0, 0.0, 0.0, -17.75375, 5.64375, -2.12625
17.6947369576, -0.0, 0.0, -0.0, -19.15375, 4.48875, -1.82875, 0.0, 0.0, 0.0, -14.11375, 2.5375, -1.30375
17.7449119091, -0.0, -0.0, -0.0, -15.6975, 1.645, -0.28875, 0.0, 0.0, 0.0, -13.16875, -0.65625, -1.82
17.7951591015, -0.0, -0.0, -0.0, -13.22125, 1.7675, 0.32375, 0.0, 0.0, 0.0, -9.59, -0.9625, 0.175
17.8454039097, -0.0, -0.0, 0.0, -13.22125, -0.49, 1.2425, 0.0, 0.0, 0.0, -8.35625, -2.9225, 0.9275
17.8956730366, -0.0, -0.0, 0.0, -6.57125, -4.2875, 1.82, 0.0, 0.0, 0.0, -3.22, -6.41375, 0.46375
17.9459760189, -0.0, -0.0, 0.0, -4.75125, -5.10125, 2.21375, 0.0, 0.0, 0.0, -0.88375, -7.60375, 1.6625
17.9962120056, 0.0, -0.0, 0.0, -1.00625, -7.8575, 2.59, 0.0, 0.0, 0.0, 3.255, -10.1325, 1.995
18.0465168953, 0.0, -0.0, 0.0, 0.3325, -8.58375, 3.00125, 0.0, 0.0, 0.0, 4.0425, -11.7425, 1.79375
18.0967149734, 0.0, -0.0, 0.0, 3.64875, -9.5725, 2.8175, 0.0, 0.0, 0.0, 7.1225, -12.31125, 2.275
18.1469490528, 0.0, -0.0, 0.0, 8.0325, -9.625, 1.435, 0.0, 0.0, 0.0, 11.20875, -11.50625, 0.90125
18.1973700523, 0.0, -0.0, 0.0, 6.44, -9.275, 3.89375, 0.0, 0.0, 0.0, 8.8725, -12.1275, 2.58125
18.2476069927, 0.0, -0.0, 0.0, 8.61, -8.19, 4.61125, 0.0, 0.0, 0.0, 12.285, -10.33375, 3.45625
18.2978599072, 0.0, -0.0, 0.0, 10.66625, -6.6325, 4.865, 0.0, 0.0, 0.0, 13.01125, -8.67125, 2.77375
18.3480119705, 0.0, -0.0, 0.0, 9.485, -5.53875, 5.285, 0.0, 0.0, 0.0, 13.4225, -8.30375, 3.75375
18.3982040882, 0.0, -0.0, 0.0, 10.01875, -3.80625, 5.6525, 0.0, 0.0, 0.0, 13.545, -6.3875, 5.36375
18.4483718872, 0.0, -0.0, 0.0, 9.72125, -3.045, 6.51875, 0.0, 0.0, 0.0, 13.4575, -5.495, 5.74875
18.498871088, 0.0, -0.0, 0.0, 9.19625, -1.925, 6.57125, 0.0, 0.0, 0.0, 13.23875, -4.235, 5.67875
18.5490438938, 0.0, -0.0, 0.0, 8.5925, -0.69125, 6.58, 0.0, 0.0, 0.0, 12.52125, -3.73625, 4.935
18.5993089676, 0.0, -0.0, 0.0, 6.50125, 0.07875, 7.95375, 0.0, 0.0, 0.0, 9.8, -1.75, 3.99875
18.6495890617, 0.0, -0.0, 0.0, 8.4175, 0.97125, 8.645, 0.0, 0.0, 0.0, 12.32, -1.00625, 5.15375
18.6997840405, 0.0, -0.0, 0.0, 8.51375, 3.1325, 7.3325, 0.0, 0.0, 0.0, 12.73125, 1.2775, 5.845
18.7499709129, 0.0, 0.0, 0.0, 7.77875, 3.98125, 5.13625, 0.0, 0.0, 0.0, 10.63125, 1.0675, 6.055
18.8001539707, 0.0, 0.0, 0.0, 7.2275, 5.53, 6.1075, 0.0, 0.0, 0.0, 10.94625, 2.5725, 5.45125
18.8503329754, 0.0, 0.0, 0.0, 5.97625, 5.32, 5.95, 0.0, 0.0, 0.0, 9.6775, 3.57, 5.4775
18.9006359577, 0.0, 0.0, 0.0, 2.6075, 7.04375, 3.87625, 0.0, 0.0, 0.0, 7.315, 4.22625, 5.60875
18.9510729313, 0.0, 0.0, 0.0, 2.275, 8.19875, 4.50625, 0.0, 0.0, 0.0, 6.06375, 5.69625, 3.535
19.0012209415, 0.0, 0.0, 0.0, 2.7125, 8.14625, 4.8125, 0.0, 0.0, 0.0, 5.9325, 5.99375, 3.92875
19.051402092, 0.0, 0.0, 0.0, 0.455, 8.1375, 5.04875, 0.0, 0.0, 0.0, 5.1975, 5.90625, 4.62
19.1015489101, 0.0, 0.0, 0.0, 1.09375, 8.21625, 5.005, 0.0, 0.0, 0.0, 5.03125, 5.62625, 4.76875
19.1518390179, 0.0, 0.0, 0.0, -1.07625, 8.89875, 6.44875, 0.0, 0.0, 0.0, 3.70125, 5.915, 11.59375
19.2020831108, 0.0, 0.0, 0.0, -3.0625, 8.70625, 16.38, 0.0, 0.0, 0.0, 2.58125, 5.53, 17.45625
19.2523009777, 0.0, 0.0, 0.0, -2.40625, 9.135, 22.19, 0.0, 0.0, 0.0, 0.7, 5.5475, 22.225
19.3026070595, -0.0, 0.0, 0.0, -5.01375, 8.645, 26.0925, 0.0, 0.0, 0.0, -2.23125, 5.03125, 23.3275
19.3529219627, 0.0, 0.0, 0.0, -4.6375, 10.045, 22.65375, 0.0, 0.0, 0.0, -2.2575, 4.97, 23.1525
19.4035000801, 0.0, 0.0, 0.0, -4.47125, 6.83375, 16.8, 0.0, 0.0, 0.0, -3.24625, 3.77125, 15.88125
19.4537470341, -0.0, 0.0, 0.0, -8.91625, 6.36125, 13.39625, 0.0, 0.0, 0.0, -5.145, 2.91375, 13.44
19.5040109158, -0.0, 0.0, 0.0, -8.12875, 5.3725, 10.9025, 0.0, 0.0, 0.0, -5.3725, 3.14125, 11.0425
19.5543329716, -0.0, 0.0, 0.0, -10.50875, 5.08375, 9.73875, 0.0, 0.0, 0.0, -5.46, 3.01, 10.2725
19.6046800613, -0.0, 0.0, 0.0, -9.94, 5.38125, 9.63375, 0.0, 0.0, 0.0, -6.0375, 3.325, 8.8725
19.6549220085, -0.0, 0.0, 0.0, -9.31, 5.6875, 8.26875, 0.0, 0.0, 0.0, -6.55375, 2.96625, 7.60375
19.7051579952, -0.0, 0.0, 0.0, -9.68625, 6.0025, 7.63, 0.0, 0.0, 0.0, -6.78125, 3.33375, 6.97375
19.7554280758, -0.0, 0.0, 0.0, -10.3775, 5.95875, 6.79, 0.0, 0.0, 0.0, -6.8425, 3.28125, 5.4425
19.8056559563, -0.0, 0.0, 0.0, -10.78, 4.76875, 5.6875, 0.0, 0.0, 0.0, -7.65625, 2.98375, 5.31125
19.8561968803, -0.0, 0.0, 0.0, -10.01, 3.45625, 5.075, 0.0, 0.0, 0.0, -6.51, 1.2425, 4.47125
19.9066100121, -0.0, 0.0, 0.0, -7.83125, 3.40375, 6.65, 0.0, 0.0, 0.0, -6.57125, 1.0675, 5.69625
19.9569160938, -0.0, -0.0, 0.0, -10.36, 2.54625, 4.9, 0.0, 0.0, 0.0, -5.99375, 0.385, 5.15375
20.0072510242, -0.0, -0.0, 0.0, -8.505, 1.47, 4.9525, 0.0, 0.0, 0.0, -5.67, -0.06125, 4.41875
20.057461977, -0.0, -0.0, 0.0, -7.74375, 1.82875, 4.165, 0.0, 0.0, 0.0, -4.8125, -0.44625, 4.48
20.107724905, -0.0, -0.0, 0.0, -8.8375, 1.98625, 3.6575, 0.0, 0.0, 0.0, -6.58875, -0.48125, 3.75375
20.1580328941, -0.0, -0.0, 0.0, -7.95375, 3.2375, 9.26625, 0.0, 0.0, 0.0, -3.99, 0.1575, 6.5625
20.2082810402, -0.0, -0.0, 0.0, -8.46125, 1.3825, 6.79, 0.0, 0.0, 0.0, -3.4825, -0.25375, 7.105
20.2584879398, -0.0, -0.0, 0.0, -7.9275, 2.10875, 5.01375, 0.0, 0.0, 0.0, -3.5875, 0.02625, 4.655
20.3087930679, -0.0, -0.0, 0.0, -5.43375, 2.0475, 4.31375, 0.0, 0.0, 0.0, -1.82, -0.0875, 4.33125
20.3591599464, -0.0, -0.0, 0.0, -4.655, 1.8025, 4.87375, 0.0, 0.0, 0.0, -0.735, -0.3325, 3.2725
20.4094369411, 0.0, -0.0, 0.0, -4.22625, 1.575, 4.13875, 0.0, 0.0, 0.0, 0.9975, -0.16625, 3.96375
20.4597558975, 0.0, -0.0, 0.0, -2.54625, 2.05625, 4.68125, 0.0, 0.0, 0.0, 1.4175, 0.35, 3.00125
20.5100460052, 0.0, -0.0, 0.0, -2.24875, 2.12625, 4.5675, 0.0, 0.0, 0.0, 0.91875, -0.07, 3.05375
20.5603239536, 0.0, -0.0, 0.0, -2.1, 2.79125, 3.6225, 0.0, 0.0, 0.0, 2.205, 0.27125, 4.5675
20.6106050014, 0.0, -0.0, 0.0, -0.8575, 2.45, 4.36625, 0.0, 0.0, 0.0, 1.8375, 0.34125, 4.62
20.6608500481, 0.0, 0.0, 0.0, 2.1525, 4.585, 11.29625, 0.0, 0.0, 0.0, 0.72625, 2.17875, 7.14875
20.7110939026, 0.0, 0.0, 0.0, -0.63, 5.52125, 8.44375, 0.0, 0.0, 0.0, 3.59625, 3.50875, 8.96
20.7614018917, 0.0, 0.0, 0.0, 1.91625, 7.48125, 6.85125, 0.0, 0.0, 0.0, 4.76875, 5.53875, 6.965
20.8117520809, 0.0, 0.0, 0.0, 3.70125, 10.0275, 5.18875, 0.0, 0.0, 0.0, 7.11375, 7.13125, 9.5375
20.8620409966, 0.0, 0.0, 0.0, 4.10375, 9.49375, 6.65, 0.0, 0.0, 0.0, 3.3425, 6.825, 3.5175
20.9123239517, 0.0, 0.0, 0.0, 2.61625, 8.4525, 4.90875, 0.0, 0.0, 0.0, 5.99375, 6.72875, 6.755
20.9625680447, 0.0, 0.0, 0.0, 6.79875, 9.5025, 11.90875, 0.0, 0.0, 0.0, 10.4125, 6.30875, 11.62875
21.0127708912, 0.0, 0.0, 0.0, 2.975, 8.855, 19.03125, 0.0, 0.0, 0.0, 7.46375, 5.005, 18.54125
21.0630669594, 0.0, 0.0, 0.0, 0.385, 8.11125, 22.2075, 0.0, 0.0, 0.0, 2.58125, 4.33125, 20.11625
21.1133849621, 0.0, 0.0, 0.0, -0.245, 7.67375, 19.705, 0.0, 0.0, 0.0, 1.60125, 4.2525, 17.40375
21.1636838913, 0.0, 0.0, 0.0, -4.2875, 6.58875, 14.5775, 0.0, 0.0, 0.0, 0.11375, 3.1675, 14.4725
21.2140200138, 0.0, 0.0, 0.0, -3.92, 5.31125, 11.6725, 0.0, 0.0, 0.0, -2.52, 2.52875, 11.19125
21.2643198967, -0.0, 0.0, 0.0, -7.37625, 4.5325, 8.75875, 0.0, 0.0, 0.0, -4.03375, 2.8, 8.155
21.3146409988, -0.0, 0.0, 0.0, -7.46375, 4.38375, 6.97375, 0.0, 0.0, 0.0, -3.8325, 2.45875, 7.06125
21.3648409843, -0.0, 0.0, 0.0, -8.11125, 4.20875, 5.8275, 0.0, 0.0, 0.0, -5.6, 1.75875, 4.935
21.415117979, -0.0, 0.0, 0.0, -9.61625, 3.98125, 4.19125, 0.0, 0.0, 0.0, -6.16, 1.74125, 4.095
21.4653890133, -0.0, 0.0, 0.0, -9.10875, 4.0075, 3.35125, 0.0, 0.0, 0.0, -5.59125, 1.9775, 2.625
21.5157530308, -0.0, 0.0, 0.0, -8.95125, 3.815, 3.3425, 0.0, 0.0, 0.0, -4.97, 2.00375, 2.66
21.5659239292, -0.0, -0.0, 0.0, -8.47, 3.01, 3.92, 0.0, 0.0, 0.0, -4.4625, 1.2425, 2.66875
21.6161489487, 0.0, 0.0, 0.0, -4.19125, 3.9375, 3.36875, 0.0, 0.0, 0.0, -2.0125, 1.3475, 2.6775
21.6663448811, 0.0, -0.0, -0.0, -5.13625, 2.73875, -2.065, 0.0, 0.0, 0.0, 0.3675, 1.51375, -1.88125
21.7166190147, 0.0, 0.0, -0.0, -2.87875, 4.4275, -10.59625, 0.0, 0.0, 0.0, 1.365, 1.33, -11.01625
21.7668120861, 0.0, 0.0, -0.0, -3.4825, 3.31625, -18.08625, 0.0, 0.0, 0.0, 2.21375, 3.21125, -17.465
21.8170819283, 0.0, 0.0, -0.0, -4.06, 3.99, -18.9175, 0.0, 0.0, 0.0, 1.05875, 4.0775, -18.6375
21.8672199249, -0.0, 0.0, -0.0, -5.34625, 5.83625, -15.155, 0.0, 0.0, 0.0, -0.3675, 5.64375, -14.69125
21.9173700809, 0.0, 0.0, -0.0, -4.45375, 6.15125, -13.34375, 0.0, 0.0, 0.0, -0.35875, 5.565, -12.775
21.9675400257, -0.0, 0.0, -0.0, -5.81875, 6.51, -10.605, 0.0, 0.0, 0.0, -2.40625, 5.67875, -10.96375
22.0178079605, -0.0, 0.0, -0.0, -5.15375, 7.76125, -8.7675, 0.0, 0.0, 0.0, -2.05625, 6.85125, -9.2575
22.0680859089, -0.0, 0.0, -0.0, -6.545, 8.49625, -8.89875, 0.0, 0.0, 0.0, -2.94, 8.07625, -8.51375
22.1183130741, -0.0, 0.0, -0.0, -6.29125, 9.10875, -7.7175, 0.0, 0.0, 0.0, -2.8525, 7.7525, -8.88125
22.1685609818, -0.0, 0.0, -0.0, -7.28875, 9.03, -8.1375, 0.0, 0.0, 0.0, -2.38875, 8.3125, -7.1575
22.2187409401, -0.0, 0.0, -0.0, -5.8625, 8.67125, -7.42875, 0.0, 0.0, 0.0, -2.275, 7.875, -7.48125
22.2690351009, -0.0, 0.0, -0.0, -6.02, 8.33875, -6.53625, 0.0, 0.0, 0.0, -1.54875, 7.21875, -7.21
22.3193190098, -0.0, 0.0, -0.0, -5.2325, 8.81125, -6.06375, 0.0, 0.0, 0.0, -2.17, 5.32875, -5.075
22.3695540428, -0.0, 0.0, -0.0, -5.31125, 6.01125, -6.8075, 0.0, 0.0, 0.0, -2.415, 4.27, -5.5825
22.4198870659, -0.0, 0.0, -0.0, -6.36125, 5.29375, -0.20125, 0.0, 0.0, 0.0, -2.79125, 3.64, -2.02125
22.4702179432, 0.0, 0.0, -0.0, -5.27625, 3.36, -1.925, 0.0, 0.0, 0.0, 0.55125, 2.1175, -2.12625
22.5204720497, -0.0, -0.0, -0.0, -5.04, 2.45875, -3.99, 0.0, 0.0, 0.0, -0.60375, 1.26, -3.75375
22.5707530975, 0.0, -0.0, -0.0, -2.45875, 0.81375, -4.2875, 0.0, 0.0, 0.0, 0.77875, -0.21, -4.57625
22.6210179329, 0.0, -0.0, -0.0, 2.205, 2.6775, -2.35375, 0.0, 0.0, 0.0, 5.67875, 0.25375, -3.3775
22.6712489128, 0.0, -0.0, 0.0, -1.9425, 1.89875, -0.25375, 0.0, 0.0, 0.0, 2.84375, 0.00875, 2.33625
22.7215270996, 0.0, 0.0, 0.0, 0.56, 4.095, 12.13625, 0.0, 0.0, 0.0, 4.6025, 0.14875, 12.0225
22.771832943, 0.0, -0.0, 0.0, -2.12625, 3.0625, 17.52625, 0.0, 0.0, 0.0, 4.725, -0.1925, 16.72125
22.8222661018, 0.0, -0.0, 0.0, 2.79125, 2.51125, 18.41875, 0.0, 0.0, 0.0, 5.845, -0.8575, 16.765
22.8724930286, 0.0, -0.0, 0.0, 1.09375, 0.11375, 15.575, 0.0, 0.0, 0.0, 5.67, -2.31, 12.7575
22.9227809906, 0.0, -0.0, 0.0, 3.815, -0.8575, 7.3675, 0.0, 0.0, 0.0, 6.51, -3.71, 7.53375
22.9730811119, 0.0, -0.0, 0.0, 1.8025, -1.84625, 4.33125, 0.0, 0.0, 0.0, 6.65, -4.27, 5.81875
23.0233271122, 0.0, -0.0, 0.0, 2.66875, -3.4475, 3.87625, 0.0, 0.0, 0.0, 6.48375, -5.9325, 3.08
23.0736420155, 0.0, -0.0, 0.0, 1.49625, -5.45125, 2.72125, 0.0, 0.0, 0.0, 3.14125, -7.875, 1.75
23.1239840984, 0.0, -0.0, 0.0, -0.07875, -5.8975, 2.77375, 0.0, 0.0, 0.0, 2.40625, -8.0675, 1.6625
23.17446208, 0.0, -0.0, 0.0, -4.34, -5.81875, 3.4475, 0.0, 0.0, 0.0, 1.23375, -8.96875, 2.07375
23.2248249054, 0.0, -0.0, 0.0, -4.0425, -5.9325, 2.14375, 0.0, 0.0, 0.0, -0.42, -8.505, 1.84625
23.2757411003, -0.0, -0.0, 0.0, -5.32875, -5.60875, 2.44125, 0.0, 0.0, 0.0, -1.7325, -7.945, 1.79375
23.3264610767, -0.0, -0.0, 0.0, -6.02875, -5.285, 2.415, 0.0, 0.0, 0.0, -2.8525, -7.455, 1.30375
23.3767459393, -0.0, -0.0, 0.0, -7.16625, -4.6025, 2.65125, 0.0, 0.0, 0.0, -3.40375, -6.685, 2.1
23.427052021, -0.0, -0.0, 0.0, -7.77, -3.7975, 2.87875, 0.0, 0.0, 0.0, -4.4975, -5.80125, 1.6275
23.4773180485, -0.0, -0.0, 0.0, -7.7875, -3.49125, 3.71, 0.0, 0.0, 0.0, -3.98125, -4.9, 3.1325
23.5275020599, -0.0, -0.0, 0.0, -7.74375, -2.96625, 4.1475, 0.0, 0.0, 0.0, -4.34, -5.08375, 2.87875
23.5777831078, -0.0, -0.0, 0.0, -6.86, -2.37125, 5.1975, 0.0, 0.0, 0.0, -4.45375, -4.33125, 3.5
23.6280829906, -0.0, -0.0, 0.0, -9.625, -1.225, 4.9175, 0.0, 0.0, 0.0, -4.61125, -3.15875, 4.1475
23.6784350872, -0.0, -0.0, 0.0, -9.75625, -1.19875, 7.90125, 0.0, 0.0, 0.0, -5.25, -3.4125, 4.235
23.7287919521, -0.0, -0.0, 0.0, -8.81125, -0.32375, 6.23875, 0.0, 0.0, 0.0, -7.14875, -2.0825, 4.4275
23.7791249752, -0.0, -0.0, 0.0, -8.88125, 0.84875, 5.0225, 0.0, 0.0, 0.0, -5.81, -1.04125, 2.45
23.8293910027, -0.0, -0.0, 0.0, -8.95125, 2.275, 3.92, 0.0, 0.0, 0.0, -6.2825, 0.035, 3.78875
23.87966609, -0.0, -0.0, 0.0, -9.79125, 3.3425, 3.54375, 0.0, 0.0, 0.0, -6.0375, 1.19875, 2.4675
23.9299519062, -0.0, -0.0, 0.0, -9.66, 3.21125, 2.73875, 0.0, 0.0, 0.0, -6.965, 1.715, 1.61
23.9802379608, -0.0, 0.0, 0.0, -9.31, 3.61375, 2.0475, 0.0, 0.0, 0.0, -5.25875, 1.67125, 2.03875
24.0304830074, -0.0, 0.0, 0.0, -8.8025, 4.795, 1.91625, 0.0, 0.0, 0.0, -5.46875, 2.19625, 1.6625
24.080739975, -0.0, 0.0, 0.0, -7.72625, 3.92875, 2.24875, 0.0, 0.0, 0.0, -4.83875, 2.09125, 1.6275
24.1310400963, -0.0, 0.0, 0.0, -8.19875, 3.9025, 3.465, 0.0, 0.0, 0.0, -4.795, 2.8, 3.78
24.1813080311, -0.0, 0.0, 0.0, -7.41125, 5.67875, 11.585, 0.0, 0.0, 0.0, -3.33375, 2.80875, 14.76125
24.2315189838, -0.0, 0.0, 0.0, -8.04125, 7.35875, 18.7075, 0.0, 0.0, 0.0, -4.03375, 4.2525, 20.0725
24.2816948891, -0.0, 0.0, 0.0, -5.18, 9.065, 24.64875, 0.0, 0.0, 0.0, -3.045, 5.1975, 23.10875
24.3319010735, -0.0, 0.0, 0.0, -5.5475, 9.695, 24.00125, 0.0, 0.0, 0.0, -1.72375, 5.11875, 23.09125
24.3821969032, 0.0, 0.0, 0.0, -2.4675, 9.54625, 15.28625, 0.0, 0.0, 0.0, 0.805, 5.5475, 16.9575
24.4324429035, 0.0, 0.0, 0.0, -2.205, 7.7875, 10.00125, 0.0, 0.0, 0.0, 0.23625, 5.0575, 9.77375
24.4827508926, 0.0, 0.0, 0.0, -0.35875, 7.53375, 6.50125, 0.0, 0.0, 0.0, 3.70125, 5.17125, 7.665
24.5331161022, 0.0, 0.0, 0.0, -0.0, 6.50125, 5.005, 0.0, 0.0, 0.0, 2.485, 4.33125, 4.90875
24.5833909512, 0.0, 0.0, 0.0, 0.00875, 5.7225, 2.30125, 0.0, 0.0, 0.0, 3.605, 4.025, 1.32125
24.6335980892, 0.0, 0.0, 0.0, -1.42625, 5.18875, 0.98875, 0.0, 0.0, 0.0, 3.1325, 3.91125, 2.31875
24.6838819981, 0.0, 0.0, -0.0, -1.8375, 6.1425, -0.3675, 0.0, 0.0, 0.0, 2.21375, 4.06875, 0.385
24.7342150211, 0.0, 0.0, -0.0, -1.8725, 7.09625, -0.76125, 0.0, 0.0, 0.0, 1.6625, 5.3375, -1.505
24.784414053, 0.0, 0.0, -0.0, -2.17875, 7.525, -2.09125, 0.0, 0.0, 0.0, 1.56625, 5.62625, -3.96375
24.8346130848, 0.0, 0.0, -0.0, -3.15875, 8.28625, -4.445, 0.0, 0.0, 0.0, 0.56, 7.02625, -4.8475
24.8848040104, 0.0, 0.0, -0.0, -1.05, 9.5025, -6.15125, 0.0, 0.0, 0.0, 0.6825, 8.26, -3.22875
24.9351050854, 0.0, 0.0, -0.0, -2.73, 9.28375, -5.76625, 0.0, 0.0, 0.0, 0.35, 7.63875, -5.04
24.9854030609, 0.0, 0.0, -0.0, -4.27, 9.345, -7.7175, 0.0, 0.0, 0.0, -1.40875, 7.93625, -7.2275
25.035695076, 0.0, 0.0, -0.0, -2.61625, 10.38625, -7.7175, 0.0, 0.0, 0.0, 1.46125, 8.74125, -7.53375
25.0859849453, 0.0, 0.0, -0.0, -2.93125, 10.64, -8.40875, 0.0, 0.0, 0.0, 1.25125, 10.2375, -9.065
25.1362609863, 0.0, 0.0, -0.0, -3.75375, 11.935, -8.4175, 0.0, 0.0, 0.0, 0.6475, 10.0275, -9.37125
25.1864619255, 0.0, 0.0, -0.0, -2.835, 13.16, -10.4125, 0.0, 0.0, 0.0, 1.5925, 11.6725, -10.94625
25.2367761135, 0.0, 0.0, -0.0, -1.82875, 14.6475, -13.1775, 0.0, 0.0, 0.0, 3.2375, 13.265, -11.7425
25.2870481014, 0.0, 0.0, -0.0, -1.32125, 15.4525, -14.0175, 0.0, 0.0, 0.0, 3.2725, 15.05875, -12.95
25.3378200531, 0.0, 0.0, -0.0, -0.14875, 15.89, -14.32375, 0.0, 0.0, 0.0, 3.10625, 14.77875, -14.13125
25.3880751133, 0.0, 0.0, -0.0, -1.47875, 16.12625, -14.51625, 0.0, 0.0, 0.0, 3.0275, 15.47875, -13.23
25.4382479191, 0.0, 0.0, -0.0, -0.7875, 16.58125, -12.38125, 0.0, 0.0, 0.0, 4.31375, 15.49625, -12.705
25.4884190559, 0.0, 0.0, -0.0, -1.02375, 16.1175, -14.28, 0.0, 0.0, 0.0, 2.31, 15.785, -14.55125
25.5387001038, 0.0, 0.0, -0.0, 1.25125, 17.22875, -16.28375, 0.0, 0.0, 0.0, 5.52125, 16.415, -14.7175
25.588958025, 0.0, 0.0, -0.0, 0.86625, 17.57, -17.21125, 0.0, 0.0, 0.0, 4.57625, 17.045, -17.36875
25.6392059326, 0.0, 0.0, -0.0, 1.28625, 18.62875, -19.80125, 0.0, 0.0, 0.0, 5.915, 18.33125, -19.06625
25.6896009445, 0.0, 0.0, -0.0, 1.225, 19.2675, -21.67375, 0.0, 0.0, 0.0, 6.37, 19.355, -20.79
25.73990798, 0.0, 0.0, -0.0, 0.67375, 18.025, -21.4725, 0.0, 0.0, 0.0, 5.55625, 18.17375, -20.55375
25.7902719975, 0.0, 0.0, -0.0, 0.79625, 16.66, -21.315, 0.0, 0.0, 0.0, 5.11, 16.6425, -20.53625
25.8406019211, 0.0, 0.0, -0.0, -0.98875, 14.14, -20.51, 0.0, 0.0, 0.0, 4.05125, 14.1225, -19.8625
25.8908379078, 0.0, 0.0, -0.0, 0.3325, 11.73375, -20.3875, 0.0, 0.0, 0.0, 3.3075, 12.04, -19.90625
25.9410400391, 0.0, 0.0, -0.0, -1.505, 10.38625, -20.335, 0.0, 0.0, 0.0, 2.8, 10.12375, -19.39
25.9913270473, 0.0, 0.0, -0.0, -2.3975, 8.67125, -19.22375, 0.0, 0.0, 0.0, 2.61625, 8.4175, -19.18875
26.0416181087, 0.0, 0.0, -0.0, -3.3775, 5.22375, -17.80625, 0.0, 0.0, 0.0, 0.51625, 5.565, -17.9725
26.0918700695, -0.0, 0.0, -0.0, -5.08375, 2.9225, -17.3425, 0.0, 0.0, 0.0, -1.21625, 2.3625, -16.6425
26.1421689987, -0.0, -0.0, -0.0, -6.18625, 1.05, -15.98625, 0.0, 0.0, 0.0, -2.61625, -0.2275, -15.25125
26.1924901009, -0.0, -0.0, -0.0, -6.97375, -0.9975, -14.67375, 0.0, 0.0, 0.0, -3.64, -1.575, -15.56625
26.2426741123, -0.0, -0.0, -0.0, -7.90125, -1.93375, -13.86, 0.0, 0.0, 0.0, -3.9025, -2.91375, -14.5775
26.2928528786, -0.0, -0.0, -0.0, -9.47625, -3.85, -13.18625, 0.0, 0.0, 0.0, -5.45125, -4.43625, -14.09625
26.3434860706, -0.0, -0.0, -0.0, -8.575, -4.19125, -13.4925, 0.0, 0.0, 0.0, -5.6525, -5.29375, -14.09625
26.3937211037, -0.0, -0.0, -0.0, -9.415, -4.03375, -11.26125, 0.0, 0.0, 0.0, -7.60375, -5.38125, -13.16
26.444024086, -0.0, -0.0, -0.0, -9.72125, -5.90625, -10.43, 0.0, 0.0, 0.0, -7.18375, -6.95625, -12.38125
26.4943680763, -0.0, -0.0, -0.0, -9.77375, -7.16625, -10.465, 0.0, 0.0, 0.0, -6.34375, -7.53375, -11.8825
26.5446920395, -0.0, -0.0, -0.0, -11.76875, -7.37625, -11.1825, 0.0, 0.0, 0.0, -8.505, -8.35625, -11.92625
26.5950450897, -0.0, -0.0, -0.0, -11.59375, -7.455, -9.61625, 0.0, 0.0, 0.0, -7.98875, -7.945, -11.43625
26.6453840733, -0.0, -0.0, -0.0, -10.9725, -7.595, -9.61625, 0.0, 0.0, 0.0, -7.07, -8.72375, -10.1675
26.6956260204, -0.0, -0.0, -0.0, -9.91375, -7.90125, -8.925, 0.0, 0.0, 0.0, -6.125, -8.5225, -9.77375
26.7459020615, -0.0, -0.0, -0.0, -8.2425, -7.72625, -7.48125, 0.0, 0.0, 0.0, -5.565, -8.35625, -9.63375
26.796216011, -0.0, -0.0, -0.0, -7.90125, -6.685, -7.875, 0.0, 0.0, 0.0, -4.1825, -7.55125, -8.58375
26.8464109898, -0.0, -0.0, -0.0, -7.46375, -5.4425, -7.455, 0.0, 0.0, 0.0, -3.4475, -6.44875, -8.295
26.8966150284, -0.0, -0.0, -0.0, -8.00625, -4.5675, -7.9975, 0.0, 0.0, 0.0, -2.93125, -5.6875, -8.00625
26.9468889236, -0.0, -0.0, -0.0, -7.91, -4.095, -7.00875, 0.0, 0.0, 0.0, -4.19125, -4.9, -8.61875
26.9971718788, -0.0, -0.0, -0.0, -7.41125, -2.68625, -7.455, 0.0, 0.0, 0.0, -3.49125, -4.03375, -7.84875
27.0474069118, -0.0, -0.0, -0.0, -6.51875, -0.8575, -8.68875, 0.0, 0.0, 0.0, -2.21375, -1.75, -8.2775
27.0977621078, -0.0, -0.0, -0.0, -5.355, 2.0125, -8.37375, 0.0, 0.0, 0.0, -1.26875, 0.7525, -8.65375
27.1480269432, -0.0, -0.0, -0.0, -4.66375, 1.82, -7.95375, 0.0, 0.0, 0.0, -0.7, 0.34125, -8.3825
27.1983180046, 0.0, -0.0, -0.0, -4.585, 2.49375, -8.26, 0.0, 0.0, 0.0, -0.665, 1.46125, -6.83375
27.2485349178, 0.0, 0.0, -0.0, -3.80625, 3.4475, -6.15125, 0.0, 0.0, 0.0, -0.385, 1.6275, -6.69375
27.2987749577, 0.0, 0.0, -0.0, -3.605, 3.2375, -6.36125, 0.0, 0.0, 0.0, 0.735, 2.205, -5.8625
27.3490030766, 0.0, -0.0, -0.0, -3.395, 2.8, -5.22375, 0.0, 0.0, 0.0, 0.06125, 1.19875, -4.54125
27.3992800713, 0.0, -0.0, -0.0, -3.07125, 2.91375, -8.75875, 0.0, 0.0, 0.0, 0.4025, 1.39125, -8.925
27.4496910572, 0.0, 0.0, -0.0, -2.42375, 2.47625, -12.775, 0.0, 0.0, 0.0, 1.995, 2.52875, -12.18
27.5000939369, 0.0, -0.0, -0.0, -1.0325, 2.19625, -18.62875, 0.0, 0.0, 0.0, 3.24625, 1.33875, -19.04875
27.5504848957, 0.0, -0.0, -0.0, -1.54, 1.365, -22.98625, 0.0, 0.0, 0.0, 3.3075, 1.6625, -22.61875
27.6006710529, 0.0, 0.0, -0.0, -0.25375, 2.6425, -22.14625, 0.0, 0.0, 0.0, 2.89625, 1.995, -24.6575
27.650906086, 0.0, -0.0, -0.0, -3.7275, 1.575, -17.98125, 0.0, 0.0, 0.0, -0.4025, 1.21625, -20.62375
27.7011630535, 0.0, -0.0, -0.0, -0.67375, 0.6825, -16.24875, 0.0, 0.0, 0.0, 2.33625, -0.2275, -15.6625
27.7515559196, 0.0, -0.0, -0.0, -1.8025, -0.42, -12.71375, 0.0, 0.0, 0.0, 2.0825, -0.93625, -13.7025
27.8018889427, 0.0, -0.0, -0.0, -1.65375, -0.42875, -11.27, 0.0, 0.0, 0.0, 3.605, -0.77, -10.6925
27.8521690369, 0.0, -0.0, -0.0, -2.275, 0.8225, -9.66875, 0.0, 0.0, 0.0, 2.16125, -0.0525, -9.0125
27.9024128914, 0.0, 0.0, -0.0, -1.84625, 3.08875, -7.665, 0.0, 0.0, 0.0, 2.26625, 2.07375, -7.4025
27.9526178837, 0.0, 0.0, -0.0, -3.03625, 4.8125, -5.83625, 0.0, 0.0, 0.0, 0.58625, 3.56125, -5.83625
28.0027940273, 0.0, 0.0, -0.0, -2.21375, 6.69375, -4.69875, 0.0, 0.0, 0.0, 1.33, 3.26375, -5.7225
28.0529949665, 0.0, 0.0, -0.0, -3.71875, 3.8675, -4.2, 0.0, 0.0, 0.0, 0.02625, 2.35375, -5.53
28.1032919884, 0.0, -0.0, -0.0, -3.2725, 3.22875, -3.89375, 0.0, 0.0, 0.0, 0.97125, 1.7675, -4.71625
28.1535739899, 0.0, -0.0, -0.0, -3.08, 1.98625, -4.235, 0.0, 0.0, 0.0, 0.875, 0.46375, -4.1125
28.2038700581, 0.0, -0.0, -0.0, -3.08875, 1.1025, -3.24625, 0.0, 0.0, 0.0, -0.28, -0.455, -4.26125
28.2546770573, 0.0, -0.0, -0.0, -3.75375, 0.48125, -2.73, 0.0, 0.0, 0.0, 1.155, -1.37375, -3.4125
28.3049640656, 0.0, -0.0, -0.0, -2.94, -0.14875, -1.70625, 0.0, 0.0, 0.0, 0.25375, -1.74125, -3.52625
28.3551778793, 0.0, -0.0, 0.0, -2.7825, -0.9275, -3.4475, 0.0, 0.0, 0.0, 5.03125, -2.21375, 2.8175
28.4054229259, 0.0, -0.0, 0.0, -2.1875, -1.33, 2.73875, 0.0, 0.0, 0.0, 2.63375, -2.7825, 4.7075
28.4556939602, 0.0, -0.0, 0.0, -2.45875, 0.9975, 14.49875, 0.0, 0.0, 0.0, 0.30625, -2.12625, 14.41125
28.5059099197, 0.0, -0.0, 0.0, -1.68875, 2.275, 21.525, 0.0, 0.0, 0.0, 1.68, -1.295, 22.32125
28.5561900139, 0.0, -0.0, 0.0, -2.6775, 1.56625, 23.59, 0.0, 0.0, 0.0, 2.415, -2.31, 19.635
28.6065759659, 0.0, -0.0, 0.0, -2.59, -0.11375, 17.7975, 0.0, 0.0, 0.0, 1.9425, -3.5175, 17.19375
28.6568369865, 0.0, -0.0, 0.0, -1.015, -1.53125, 14.105, 0.0, 0.0, 0.0, 4.13, -4.24375, 12.6875
28.7071979046, 0.0, -0.0, 0.0, -1.5925, -2.1525, 10.71, 0.0, 0.0, 0.0, 2.45875, -4.99625, 9.35375
28.7575039864, 0.0, -0.0, 0.0, -1.2425, -3.2725, 8.37375, 0.0, 0.0, 0.0, 2.44125, -6.09, 8.4525
28.8077590466, 0.0, -0.0, 0.0, -1.84625, -4.1475, 8.56625, 0.0, 0.0, 0.0, 2.205, -6.86, 7.53375
28.8579690456, 0.0, -0.0, 0.0, -2.0475, -4.235, 7.7175, 0.0, 0.0, 0.0, 1.6975, -6.92125, 7.46375
28.9082119465, 0.0, -0.0, 0.0, -4.29625, -4.10375, 8.6625, 0.0, 0.0, 0.0, -1.2425, -6.57125, 6.27375
28.9587469101, 0.0, -0.0, 0.0, -4.62, -3.885, 7.56, 0.0, 0.0, 0.0, -1.23375, -6.15125, 6.3875
29.0089960098, -0.0, -0.0, 0.0, -5.74, -3.22875, 6.78125, 0.0, 0.0, 0.0, -3.47375, -5.5825, 5.41625
29.05960989, -0.0, -0.0, 0.0, -7.21875, -2.2925, 7.14875, 0.0, 0.0, 0.0, -4.34, -4.865, 4.515
29.1099379063, -0.0, -0.0, 0.0, -7.06125, -1.89, 5.22375, 0.0, 0.0, 0.0, -3.8325, -4.48875, 5.45125
29.1601219177, -0.0, -0.0, 0.0, -8.02375, -0.42, 5.92375, 0.0, 0.0, 0.0, -4.08625, -2.82625, 5.2675
29.2103641033, -0.0, -0.0, 0.0, -6.88625, -0.25375, 5.53, 0.0, 0.0, 0.0, -3.4475, -2.66, 4.97
29.2608680725, -0.0, -0.0, 0.0, -7.23625, 0.98, 6.1775, 0.0, 0.0, 0.0, -3.70125, -1.3125, 5.46
29.3111400604, -0.0, -0.0, 0.0, -6.83375, 1.58375, 5.7575, 0.0, 0.0, 0.0, -3.99875, -0.81375, 5.495
29.3613400459, -0.0, -0.0, 0.0, -8.42625, 2.2575, 6.62375, 0.0, 0.0, 0.0, -5.46, 0.0175, 5.04875
29.4115800858, -0.0, -0.0, 0.0, -7.91875, 2.44125, 7.1575, 0.0, 0.0, 0.0, -5.52125, 0.46375, 4.92625
29.461810112, -0.0, -0.0, 0.0, -9.40625, 3.3075, 4.4975, 0.0, 0.0, 0.0, -6.23, 1.295, 5.60875
29.5120880604, -0.0, 0.0, 0.0, -8.33875, 3.955, 5.8625, 0.0, 0.0, 0.0, -6.04625, 1.9425, 5.985
29.5624129772, -0.0, 0.0, 0.0, -9.51125, 5.18, 6.27375, 0.0, 0.0, 0.0, -5.62625, 2.37125, 6.86875
29.6126821041, -0.0, 0.0, 0.0, -5.59125, 6.39625, 4.6375, 0.0, 0.0, 0.0, -4.585, 3.8675, 4.22625
29.662925005, -0.0, 0.0, 0.0, -8.8375, 7.5425, 3.82375, 0.0, 0.0, 0.0, -4.52375, 4.865, 5.81
29.7131929398, -0.0, 0.0, 0.0, -6.41375, 6.76375, 4.75125, 0.0, 0.0, 0.0, -3.52625, 3.9375, 4.8125
29.7635629177, -0.0, 0.0, 0.0, -8.7675, 6.02, 4.3575, 0.0, 0.0, 0.0, -6.53625, 3.89375, 4.6025
29.8138010502, -0.0, 0.0, 0.0, -7.77875, 5.94125, 3.82375, 0.0, 0.0, 0.0, -4.01625, 3.5175, 4.08625
29.8639740944, -0.0, 0.0, 0.0, -6.97375, 5.94125, 4.40125, 0.0, 0.0, 0.0, -3.33375, 3.40375, 5.0225
29.914192915, -0.0, 0.0, 0.0, -6.46625, 5.3025, 4.76875, 0.0, 0.0, 0.0, -3.1675, 3.185, 6.475
29.9645040035, -0.0, 0.0, 0.0, -6.78125, 4.9175, 4.585, 0.0, 0.0, 0.0, -2.37125, 2.7475, 4.6025
30.0147199631, -0.0, 0.0, 0.0, -5.2675, 4.73375, 4.55875, 0.0, 0.0, 0.0, -2.44125, 2.31, 3.45625
30.0648989677, -0.0, 0.0, 0.0, -5.215, 4.73375, 4.06875, 0.0, 0.0, 0.0, -2.16125, 2.63375, 3.4475
30.1159338951, -0.0, 0.0, 0.0, -5.83625, 5.04875, 3.8325, 0.0, 0.0, 0.0, -2.5375, 2.73875, 2.835
30.166189909, -0.0, 0.0, 0.0, -6.0025, 4.8125, 4.2, 0.0, 0.0, 0.0, -3.17625, 3.0275, 2.07375
30.2164540291, -0.0, 0.0, 0.0, -6.2125, 4.54125, 2.9225, 0.0, 0.0, 0.0, -2.65125, 2.73875, 3.22
30.2667489052, -0.0, 0.0, 0.0, -5.1625, 5.04875, 3.61375, 0.0, 0.0, 0.0, -0.98, 2.12625, 3.22
30.3170180321, -0.0, 0.0, 0.0, -5.5475, 3.78875, 3.395, 0.0, 0.0, 0.0, -0.81375, 1.4175, 3.50875
30.3672840595, 0.0, -0.0, 0.0, -4.19125, 3.28125, 3.5875, 0.0, 0.0, 0.0, -1.09375, 1.19875, 3.4125
30.417568922, 0.0, 0.0, 0.0, -2.89625, 3.52625, 4.54125, 0.0, 0.0, 0.0, 0.4725, 1.14625, 3.03625
30.4679129124, 0.0, 0.0, 0.0, -3.56125, 3.71, 5.06625, 0.0, 0.0, 0.0, 0.23625, 1.46125, 4.1825
30.518198967, 0.0, 0.0, 0.0, -2.45, 3.71, 4.76875, 0.0, 0.0, 0.0, 0.77, 1.42625, 3.675
30.568600893, 0.0, 0.0, 0.0, -3.0275, 4.10375, 3.59625, 0.0, 0.0, 0.0, 0.72625, 2.16125, 4.50625
30.6189289093, 0.0, 0.0, 0.0, -2.89625, 5.075, 5.355, 0.0, 0.0, 0.0, 0.91, 2.77375, 3.675
30.6691560745, 0.0, 0.0, 0.0, -2.5025, 5.0225, 3.99875, 0.0, 0.0, 0.0, 0.42875, 2.65125, 3.96375
30.7194299698, 0.0, 0.0, 0.0, -4.24375, 4.82125, 3.36, 0.0, 0.0, 0.0, 0.90125, 3.28125, 3.82375
30.7697429657, 0.0, 0.0, 0.0, -3.36875, 4.80375, 3.2025, 0.0, 0.0, 0.0, 0.4725, 2.66, 2.42375
30.8200809956, 0.0, 0.0, 0.0, -3.8675, 5.32875, 3.15875, 0.0, 0.0, 0.0, 0.1225, 3.4825, 2.3625
30.8703410625, 0.0, 0.0, 0.0, -3.10625, 5.915, 3.2725, 0.0, 0.0, 0.0, 0.77, 3.9025, 3.0625
30.9205889702, 0.0, 0.0, 0.0, -3.78875, 6.41375, 3.54375, 0.0, 0.0, 0.0, -2.205, 4.10375, 2.9575
30.9708809853, 0.0, 0.0, 0.0, -4.7075, 7.11375, 3.01875, 0.0, 0.0, 0.0, -0.0875, 5.46875, 3.01875
31.0212469101, 0.0, 0.0, 0.0, -4.43625, 7.83125, 3.22875, 0.0, 0.0, 0.0, -1.0675, 5.5125, 2.72125
31.0715010166, -0.0, 0.0, 0.0, -5.53875, 8.295, 2.24, 0.0, 0.0, 0.0, -2.05625, 6.46625, 2.345
31.121792078, -0.0, 0.0, 0.0, -4.64625, 8.89875, 2.7475, 0.0, 0.0, 0.0, -1.74125, 6.44, 2.10875
31.1720840931, -0.0, 0.0, 0.0, -4.83, 8.7325, 2.87, 0.0, 0.0, 0.0, -1.6975, 6.755, 1.91625
31.2224419117, -0.0, 0.0, 0.0, -5.775, 9.695, 3.17625, 0.0, 0.0, 0.0, -2.63375, 7.51625, 2.1175
31.2727730274, -0.0, 0.0, 0.0, -6.02875, 10.56125, 3.01875, 0.0, 0.0, 0.0, -1.9775, 8.61, 2.80875
31.3230659962, -0.0, 0.0, 0.0, -6.1425, 11.6025, 3.57, 0.0, 0.0, 0.0, -3.57875, 9.80875, 2.98375
31.3732709885, -0.0, 0.0, 0.0, -6.3525, 12.74875, 3.03625, 0.0, 0.0, 0.0, -2.485, 10.36875, 3.2725
31.4234790802, -0.0, 0.0, 0.0, -7.14, 13.13375, 3.89375, 0.0, 0.0, 0.0, -4.54125, 11.2875, 3.255
31.473692894, -0.0, 0.0, 0.0, -8.14625, 14.21875, 3.605, 0.0, 0.0, 0.0, -4.10375, 12.13625, 3.36
31.52394104, -0.0, 0.0, 0.0, -7.8925, 14.6475, 3.28125, 0.0, 0.0, 0.0, -5.25, 12.52125, 2.3975
31.5745038986, -0.0, 0.0, 0.0, -8.63625, 14.46375, 2.59875, 0.0, 0.0, 0.0, -3.96375, 12.4775, 2.73875
31.6248559952, -0.0, 0.0, 0.0, -7.58625, 13.92125, 1.61875, 0.0, 0.0, 0.0, -5.8625, 11.66375, 1.04125
31.6751949787, -0.0, 0.0, 0.0, -8.53125, 13.81625, 2.2225, 0.0, 0.0, 0.0, -2.2575, 10.24625, 2.8875
31.725661993, -0.0, 0.0, 0.0, -7.58625, 12.53, 2.8875, 0.0, 0.0, 0.0, -3.28125, 11.06, 2.63375
31.7759339809, -0.0, 0.0, 0.0, -7.70875, 12.34625, 2.72125, 0.0, 0.0, 0.0, -3.91125, 10.22, 2.9225
31.8262190819, -0.0, 0.0, 0.0, -6.755, 12.66125, 1.47, 0.0, 0.0, 0.0, -3.08875, 9.91375, 2.7825
31.8763999939, -0.0, 0.0, 0.0, -6.895, 11.445, 1.46125, 0.0, 0.0, 0.0, -2.66875, 9.1175, 3.4125
31.9266180992, -0.0, 0.0, 0.0, -6.44875, 10.7625, 1.49625, 0.0, 0.0, 0.0, -3.21125, 8.47, 3.21125
31.9769198895, -0.0, 0.0, 0.0, -5.81875, 9.49375, 1.6975, 0.0, 0.0, 0.0, -2.33625, 8.21625, 2.80875
32.0272459984, -0.0, 0.0, 0.0, -6.195, 9.77375, 2.02125, 0.0, 0.0, 0.0, -2.24875, 7.7875, 2.065
32.0775949955, -0.0, 0.0, 0.0, -4.795, 9.91375, 2.1, 0.0, 0.0, 0.0, -1.12875, 8.89875, 2.6075
32.1278729439, -0.0, 0.0, 0.0, -4.7075, 8.26875, 2.49375, 0.0, 0.0, 0.0, -0.79625, 5.8625, 2.8525
32.17811203, 0.0, 0.0, 0.0, -4.36625, 8.16375, 3.33375, 0.0, 0.0, 0.0, -1.02375, 5.97625, 2.54625
32.2284638882, -0.0, 0.0, 0.0, -4.935, 8.8375, 3.56125, 0.0, 0.0, 0.0, -1.30375, 4.06, 3.64875
32.2788109779, 0.0, 0.0, 0.0, -4.0075, 5.67875, 3.1675, 0.0, 0.0, 0.0, -1.23375, 3.6575, 3.85
32.329212904, 0.0, 0.0, 0.0, -3.64, 5.08375, 3.535, 0.0, 0.0, 0.0, 0.18375, 2.7125, 3.3425
32.3794810772, 0.0, 0.0, 0.0, -2.94, 4.41, 3.26375, 0.0, 0.0, 0.0, -1.32125, 2.1875, 3.9025
32.4304881096, 0.0, 0.0, 0.0, -2.91375, 3.6925, 4.5325, 0.0, 0.0, 0.0, 0.23625, 1.645, 2.49375
32.4807419777, 0.0, 0.0, 0.0, -3.1675, 3.395, 3.96375, 0.0, 0.0, 0.0, 1.1375, 0.48125, 4.38375
32.5309329033, 0.0, -0.0, 0.0, -2.33625, 1.5925, 4.29625, 0.0, 0.0, 0.0, 1.09375, -0.93625, 3.5175
32.5811829567, 0.0, -0.0, 0.0, -2.9225, 1.0325, 4.31375, 0.0, 0.0, 0.0, 0.56, -1.575, 3.05375
32.631385088, 0.0, -0.0, 0.0, -1.7675, 0.81375, 5.31125, 0.0, 0.0, 0.0, 0.63875, -1.89, 3.73625
32.6815230846, 0.0, -0.0, 0.0, -2.40625, 0.56875, 5.0925, 0.0, 0.0, 0.0, 0.70875, -1.6275, 3.98125
32.7317779064, 0.0, -0.0, 0.0, -1.84625, 0.13125, 5.2675, 0.0, 0.0, 0.0, 1.46125, -2.17875, 3.85875
32.7820110321, 0.0, -0.0, 0.0, -0.9975, -0.14875, 4.7075, 0.0, 0.0, 0.0, 2.3625, -2.765, 4.64625
32.8323090076, 0.0, -0.0, 0.0, -2.03, -0.13125, 5.705, 0.0, 0.0, 0.0, 2.82625, -2.7825, 4.0425
32.8826780319, 0.0, -0.0, 0.0, -1.54, -0.385, 4.36625, 0.0, 0.0, 0.0, 2.17875, -3.22875, 3.7975
32.9329900742, 0.0, -0.0, 0.0, -1.75, -0.0875, 4.0775, 0.0, 0.0, 0.0, 1.44375, -3.0275, 4.43625
32.9832010269, 0.0, -0.0, 0.0, -1.88125, 0.00875, 3.38625, 0.0, 0.0, 0.0, 1.645, -2.3625, 3.535
33.0335330963, 0.0, -0.0, 0.0, -2.2225, 0.09625, 4.76, 0.0, 0.0, 0.0, 0.35, -2.8525, 4.10375
33.0837628841, 0.0, -0.0, 0.0, -1.435, 0.44625, 4.36625, 0.0, 0.0, 0.0, 2.0475, -1.96, 4.1125
33.1339900494, 0.0, -0.0, 0.0, -2.24, 1.015, 5.7225, 0.0, 0.0, 0.0, 0.805, -1.715, 3.7625
33.1842498779, 0.0, -0.0, 0.0, -2.135, 1.0325, 6.32625, 0.0, 0.0, 0.0, 1.3125, -1.3125, 5.075
33.2345719337, 0.0, -0.0, 0.0, -3.185, 1.9075, 5.46, 0.0, 0.0, 0.0, 0.34125, -1.05, 5.39875
33.2848529816, 0.0, -0.0, 0.0, -3.71, 2.415, 5.355, 0.0, 0.0, 0.0, -1.46125, -0.42, 4.8475
33.335203886, -0.0, -0.0, 0.0, -5.215, 2.82625, 5.13625, 0.0, 0.0, 0.0, -1.26875, 0.3325, 4.13875
33.385420084, 0.0, -0.0, 0.0, -4.26125, 2.42375, 4.7775, 0.0, 0.0, 0.0, -2.0125, 0.3675, 4.305
33.4357159138, -0.0, -0.0, 0.0, -5.78375, 3.07125, 4.76875, 0.0, 0.0, 0.0, -1.1025, 0.735, 4.99625
33.4860069752, 0.0, 0.0, 0.0, -4.585, 3.57, 4.9525, 0.0, 0.0, 0.0, -1.93375, 0.91, 4.62875
33.5362789631, -0.0, 0.0, 0.0, -5.39875, 4.12125, 5.355, 0.0, 0.0, 0.0, -1.74125, 1.61875, 3.325
33.5865540504, -0.0, 0.0, 0.0, -5.25875, 4.34875, 4.8125, 0.0, 0.0, 0.0, -1.14625, 2.065, 4.305
33.6372389793, -0.0, 0.0, 0.0, -5.13625, 4.64625, 5.8275, 0.0, 0.0, 0.0, -1.95125, 2.4325, 3.675
33.6876080036, -0.0, 0.0, 0.0, -5.01375, 4.725, 4.68125, 0.0, 0.0, 0.0, -1.18125, 2.23125, 4.89125
33.7378749847, -0.0, 0.0, 0.0, -5.1975, 4.41875, 5.0575, 0.0, 0.0, 0.0, -1.60125, 2.37125, 3.7625
33.7881169319, -0.0, 0.0, 0.0, -4.89125, 4.3575, 4.935, 0.0, 0.0, 0.0, -1.12875, 2.1525, 4.41875
33.8383688927, -0.0, 0.0, 0.0, -4.94375, 4.99625, 4.38375, 0.0, 0.0, 0.0, -1.75875, 2.9225, 2.80875
33.8885910511, -0.0, 0.0, 0.0, -5.2325, 5.50375, 4.36625, 0.0, 0.0, 0.0, -2.33625, 2.80875, 4.1125
33.9388558865, -0.0, 0.0, 0.0, -5.66125, 5.4775, 4.05125, 0.0, 0.0, 0.0, -1.925, 3.0275, 3.7275
33.9890599251, -0.0, 0.0, 0.0, -5.9325, 5.59125, 3.3775, 0.0, 0.0, 0.0, -1.7675, 3.15, 4.08625
34.0398108959, -0.0, 0.0, 0.0, -6.01125, 4.97875, 3.31625, 0.0, 0.0, 0.0, -2.63375, 1.9075, 3.885
34.0900020599, -0.0, 0.0, 0.0, -5.60875, 4.33125, 4.3925, 0.0, 0.0, 0.0, -2.26625, 2.12625, 3.08
34.1402220726, -0.0, 0.0, 0.0, -5.145, 4.445, 4.48, 0.0, 0.0, 0.0, -2.345, 2.30125, 3.465
34.190392971, -0.0, 0.0, 0.0, -5.52125, 3.5875, 4.50625, 0.0, 0.0, 0.0, -1.225, 1.60125, 3.96375
34.2405910492, -0.0, -0.0, 0.0, -5.36375, 3.00125, 4.17375, 0.0, 0.0, 0.0, -1.63625, 1.19875, 4.8825
34.2908980846, 0.0, 0.0, 0.0, -4.29625, 3.70125, 4.92625, 0.0, 0.0, 0.0, -0.46375, 1.085, 4.71625
34.3412070274, 0.0, -0.0, 0.0, -4.03375, 3.3425, 4.5325, 0.0, 0.0, 0.0, 0.21875, 0.91875, 4.12125
34.3914599419, 0.0, 0.0, 0.0, -4.38375, 3.57875, 4.515, 0.0, 0.0, 0.0, -0.90125, 1.23375, 3.815
34.4418621063, 0.0, 0.0, 0.0, -0.16625, 3.5, 4.7075, 0.0, 0.0, 0.0, 1.82, 1.295, 3.9725
34.4921579361, 0.0, 0.0, 0.0, -1.61875, 4.06, 8.63625, 0.0, 0.0, 0.0, -0.25375, 1.61875, 6.67625
34.5423500538, 0.0, -0.0, 0.0, -2.24875, 2.52, 5.83625, 0.0, 0.0, 0.0, 2.58125, -0.385, 6.48375
34.5925979614, 0.0, -0.0, 0.0, -4.29625, 1.47, 4.82125, 0.0, 0.0, 0.0, -0.46375, -0.97125, 5.36375
34.6429200172, 0.0, -0.0, 0.0, -3.75375, 0.4725, 4.41, 0.0, 0.0, 0.0, -0.3675, -0.9625, 2.485
34.6932020187, 0.0, -0.0, 0.0, -2.79125, 1.89875, 4.12125, 0.0, 0.0, 0.0, 1.91625, -0.6825, 3.99
34.7434449196, 0.0, -0.0, 0.0, -3.17625, 1.3475, 5.81, 0.0, 0.0, 0.0, -0.56875, -1.295, 3.115
34.7937209606, 0.0, -0.0, 0.0, -2.485, 1.88125, 5.71375, 0.0, 0.0, 0.0, 1.11125, -0.65625, 3.29
34.8439788818, 0.0, -0.0, 0.0, -3.45625, 1.575, 5.5475, 0.0, 0.0, 0.0, -0.93625, -1.33, 3.92875
34.8942070007, 0.0, -0.0, 0.0, -2.31875, 1.09375, 3.98125, 0.0, 0.0, 0.0, 1.39125, -1.4525, 3.64875
34.9445710182, 0.0, -0.0, 0.0, -2.77375, 1.00625, 4.27875, 0.0, 0.0, 0.0, -0.2625, -1.44375, 3.6225
34.9948499203, 0.0, -0.0, 0.0, -2.35375, 1.18125, 4.1125, 0.0, 0.0, 0.0, 0.65625, -1.25125, 2.73875
35.0451390743, 0.0, -0.0, 0.0, -2.94, 1.925, 5.6875, 0.0, 0.0, 0.0, -0.76125, -0.91875, 3.07125
35.095402956, 0.0, -0.0, 0.0, -2.87875, 1.32125, 4.2525, 0.0, 0.0, 0.0, -0.4375, -0.70875, 3.52625
35.1456160545, 0.0, 0.0, 0.0, -5.08375, 3.64, 7.77875, 0.0, 0.0, 0.0, 0.69125, 0.93625, 11.3225
35.1959049702, 0.0, 0.0, 0.0, -3.22875, 6.50125, 18.89125, 0.0, 0.0, 0.0, 0.67375, 3.82375, 20.39625
35.2462890148, -0.0, 0.0, 0.0, -7.32375, 9.19625, 36.225, 0.0, 0.0, 0.0, -2.23125, 4.235, 39.4625
35.2966210842, 0.0, 0.0, 0.0, -1.6975, 10.1675, 45.35125, 0.0, 0.0, 0.0, 0.58625, 4.1475, 42.49875
35.3468930721, 0.0, 0.0, 0.0, -2.7125, 6.86, 41.04625, 0.0, 0.0, 0.0, 1.0325, 0.09625, 41.58
35.3970909119, -0.0, 0.0, 0.0, -7.02625, 4.76875, 28.74375, 0.0, 0.0, 0.0, -2.10875, -0.1575, 27.92125
35.4472460747, 0.0, 0.0, 0.0, -4.40125, 4.05125, 25.4275, 0.0, 0.0, 0.0, -0.86625, -0.455, 22.365
35.497467041, -0.0, -0.0, 0.0, -6.57125, 1.47, 18.90875, 0.0, 0.0, 0.0, -2.1525, -2.51125, 18.87375
35.5477778912, -0.0, -0.0, 0.0, -6.37, -0.63875, 16.47625, 0.0, 0.0, 0.0, -2.7475, -4.27875, 15.4875
35.5981550217, -0.0, -0.0, 0.0, -5.20625, -0.70875, 15.715, 0.0, 0.0, 0.0, -1.9425, -4.15625, 13.51875
35.6484699249, -0.0, -0.0, 0.0, -6.79, -0.98875, 14.1575, 0.0, 0.0, 0.0, -3.465, -4.31375, 13.15125
35.6986730099, -0.0, -0.0, 0.0, -7.98875, -0.5425, 12.71375, 0.0, 0.0, 0.0, -4.97875, -3.15875, 12.7925
35.7489409447, -0.0, -0.0, 0.0, -8.3475, 0.525, 13.51, 0.0, 0.0, 0.0, -5.6175, -2.37125, 11.26125
35.7991700172, -0.0, -0.0, 0.0, -9.16125, 0.77, 10.99, 0.0, 0.0, 0.0, -5.8275, -2.07375, 11.235
35.8494820595, -0.0, -0.0, 0.0, -10.2025, 0.945, 11.12125, 0.0, 0.0, 0.0, -7.11375, -2.00375, 10.08875
35.8997879028, -0.0, -0.0, 0.0, -9.65125, 1.33, 10.35125, 0.0, 0.0, 0.0, -6.7375, -1.47, 9.65125
35.950813055, -0.0, -0.0, 0.0, -10.54375, 0.93625, 10.08875, 0.0, 0.0, 0.0, -7.42875, -1.8725, 9.24
36.0014979839, -0.0, -0.0, 0.0, -10.57875, 0.7175, 9.75625, 0.0, 0.0, 0.0, -6.79, -2.00375, 8.65375
36.0518350601, -0.0, -0.0, 0.0, -11.0775, 0.60375, 9.17875, 0.0, 0.0, 0.0, -7.86625, -1.715, 8.35625
36.1019899845, -0.0, -0.0, 0.0, -10.3775, 0.83125, 8.7675, 0.0, 0.0, 0.0, -7.665, -1.7675, 8.295
36.1522181034, -0.0, -0.0, 0.0, -9.625, 0.98, 9.49375, 0.0, 0.0, 0.0, -7.46375, -1.68875, 9.2225
36.2023909092, -0.0, -0.0, 0.0, -10.42125, 1.40875, 9.02125, 0.0, 0.0, 0.0, -6.34375, -1.23375, 9.8175
36.2525780201, -0.0, -0.0, 0.0, -10.01, 1.9775, 9.1, 0.0, 0.0, 0.0, -5.2675, -0.46375, 6.92125
36.3028628826, -0.0, -0.0, 0.0, -8.60125, 2.38, 8.65375, 0.0, 0.0, 0.0, -5.32875, -0.7, 7.9275
36.3531680107, -0.0, -0.0, 0.0, -8.09375, 2.61625, 8.75, 0.0, 0.0, 0.0, -3.85, -0.02625, 8.645
36.4034109116, -0.0, -0.0, 0.0, -6.34375, 2.75625, 8.30375, 0.0, 0.0, 0.0, -3.52625, 0.14, 8.30375
36.453660965, -0.0, -0.0, 0.0, -5.74, 3.12375, 9.0475, 0.0, 0.0, 0.0, -2.555, 0.4375, 7.69125
36.5039029121, -0.0, -0.0, 0.0, -5.8975, 3.31625, 9.02125, 0.0, 0.0, 0.0, -1.89875, 0.9275, 8.26
36.5541090965, 0.0, 0.0, 0.0, -4.515, 3.71, 8.715, 0.0, 0.0, 0.0, -2.24, 0.5425, 7.105
36.604309082, -0.0, 0.0, 0.0, -4.76875, 4.41, 7.6475, 0.0, 0.0, 0.0, -1.19875, 1.6625, 8.04125
36.6545081139, -0.0, 0.0, 0.0, -5.0575, 5.87125, 8.14625, 0.0, 0.0, 0.0, -1.93375, 2.49375, 7.35
36.7047190666, 0.0, 0.0, 0.0, -3.92, 5.705, 7.98, 0.0, 0.0, 0.0, -0.98, 2.80875, 8.26875
36.7549350262, 0.0, 0.0, 0.0, -4.17375, 5.29375, 6.8075, 0.0, 0.0, 0.0, -1.98625, 2.8, 7.44625
36.8052330017, 0.0, 0.0, 0.0, -3.78875, 5.95875, 8.39125, 0.0, 0.0, 0.0, -0.06125, 2.79125, 7.14875
36.855494976, 0.0, 0.0, 0.0, -3.52625, 5.53, 6.69375, 0.0, 0.0, 0.0, -0.32375, 2.61625, 8.1025
36.9057869911, 0.0, 0.0, 0.0, -3.045, 5.53875, 8.4, 0.0, 0.0, 0.0, 1.225, 2.765, 7.9275
36.9560890198, 0.0, 0.0, 0.0, -1.75875, 5.66125, 8.46125, 0.0, 0.0, 0.0, 0.98, 2.93125, 7.90125
37.006321907, 0.0, 0.0, 0.0, -2.485, 5.57375, 8.35625, 0.0, 0.0, 0.0, 0.30625, 3.395, 7.8575
37.0565180779, 0.0, 0.0, 0.0, -2.3625, 6.58875, 7.5775, 0.0, 0.0, 0.0, 1.19875, 3.8675, 7.77875
37.1067049503, 0.0, 0.0, 0.0, -2.5375, 6.86875, 7.0, 0.0, 0.0, 0.0, 1.365, 4.26125, 6.85125
37.1569240093, 0.0, 0.0, 0.0, -1.015, 7.83125, 7.1575, 0.0, 0.0, 0.0, 2.54625, 4.83875, 7.2975
37.207146883, 0.0, 0.0, 0.0, -2.065, 7.7175, 7.175, 0.0, 0.0, 0.0, 1.00625, 5.215, 6.475
37.2576360703, 0.0, 0.0, 0.0, -0.91, 8.4525, 6.65, 0.0, 0.0, 0.0, 3.17625, 5.355, 6.62375
37.3079180717, 0.0, 0.0, 0.0, -2.26625, 7.30625, 7.5075, 0.0, 0.0, 0.0, 1.47, 5.06625, 6.055
37.3584010601, 0.0, 0.0, 0.0, -2.3975, 7.35, 5.41625, 0.0, 0.0, 0.0, 0.97125, 4.90875, 6.51
37.4087359905, 0.0, 0.0, 0.0, -3.78, 7.2275, 5.39875, 0.0, 0.0, 0.0, 0.83125, 4.87375, 5.50375
37.4591460228, 0.0, 0.0, 0.0, -2.93125, 7.6475, 5.2675, 0.0, 0.0, 0.0, 0.02625, 5.2325, 4.71625
37.509417057, 0.0, 0.0, 0.0, -4.20875, 7.62125, 3.15875, 0.0, 0.0, 0.0, -0.105, 5.52125, 3.64875
37.5596089363, 0.0, 0.0, 0.0, -4.10375, 7.945, 3.3075, 0.0, 0.0, 0.0, -1.04125, 5.6525, 3.47375
37.609803915, -0.0, 0.0, 0.0, -5.18, 7.48125, 3.325, 0.0, 0.0, 0.0, -0.98875, 4.87375, 3.54375
37.6601080894, 0.0, 0.0, 0.0, -4.34, 7.06125, 3.64875, 0.0, 0.0, 0.0, -1.75875, 5.32875, 3.2725
37.7104179859, -0.0, 0.0, 0.0, -4.89125, 6.62375, 2.54625, 0.0, 0.0, 0.0, -1.2425, 4.15625, 3.22875
37.7606449127, -0.0, 0.0, 0.0, -6.0025, 6.85125, 3.36875, 0.0, 0.0, 0.0, -2.68625, 3.98125, 3.12375
37.8108789921, 0.0, 0.0, 0.0, -4.50625, 5.81875, 2.65125, 0.0, 0.0, 0.0, -1.26875, 4.0075, 2.24875
37.8610830307, -0.0, 0.0, 0.0, -4.71625, 6.3, 3.24625, 0.0, 0.0, 0.0, -1.75, 3.885, 2.0475
37.911303997, -0.0, 0.0, 0.0, -4.9, 5.62625, 2.2575, 0.0, 0.0, 0.0, -0.30625, 3.6575, 2.2575
37.9615280628, 0.0, 0.0, 0.0, -3.465, 5.66125, 2.485, 0.0, 0.0, 0.0, -0.4375, 3.01, 2.45875
38.0118329525, 0.0, 0.0, 0.0, -3.57, 5.4075, 2.345, 0.0, 0.0, 0.0, 0.69125, 3.1675, 2.6775
38.0636250973, 0.0, 0.0, 0.0, -3.71, 5.10125, 2.42375, 0.0, 0.0, 0.0, 0.455, 2.75625, 3.70125
38.1141960621, 0.0, 0.0, 0.0, -2.02125, 5.46, 1.47, 0.0, 0.0, 0.0, 5.90625, 4.0425, 6.1775
38.1644499302, 0.0, 0.0, 0.0, -3.98125, 5.73125, 5.50375, 0.0, 0.0, 0.0, 0.20125, 3.14125, 4.3575
38.2146289349, -0.0, 0.0, 0.0, -4.99625, 4.445, 3.7275, 0.0, 0.0, 0.0, -1.0325, 2.03, 4.0075
38.2648789883, 0.0, 0.0, 0.0, -2.80875, 4.3575, 3.0275, 0.0, 0.0, 0.0, 1.085, 1.8725, 2.14375
38.3151509762, 0.0, 0.0, 0.0, -3.08, 4.235, 3.24625, 0.0, 0.0, 0.0, 1.365, 1.6625, 2.33625
38.3653819561, 0.0, -0.0, 0.0, -2.05625, 3.3425, 2.73875, 0.0, 0.0, 0.0, 1.855, 1.77625, 3.15
38.4156060219, 0.0, -0.0, 0.0, -2.205, 3.21125, 2.7125, 0.0, 0.0, 0.0, 1.26875, 1.05, 3.63125
38.4658269882, 0.0, -0.0, 0.0, -1.225, 3.29, 3.38625, 0.0, 0.0, 0.0, 3.115, 0.79625, 3.21125
38.5160288811, 0.0, -0.0, 0.0, -1.5925, 2.86125, 4.27, 0.0, 0.0, 0.0, 1.56625, 0.8575, 1.575
38.566339016, 0.0, -0.0, 0.0, -1.26875, 2.38, 2.82625, 0.0, 0.0, 0.0, 2.4325, -0.30625, 3.36
38.6166479588, 0.0, -0.0, 0.0, 3.00125, 2.135, 4.17375, 0.0, 0.0, 0.0, 2.51125, 0.18375, 1.25125
38.6669390202, 0.0, -0.0, 0.0, -4.03375, 1.7675, 2.1525, 0.0, 0.0, 0.0, 1.70625, -0.35, 3.33375
38.7172930241, 0.0, -0.0, 0.0, 0.35875, 2.5725, 3.36, 0.0, 0.0, 0.0, 3.57875, -0.06125, 1.56625
38.7676079273, 0.0, -0.0, 0.0, -1.28625, 1.4, 2.52, 0.0, 0.0, 0.0, 1.26, -0.63, 2.40625
38.8178749084, 0.0, -0.0, 0.0, -1.05, 1.18125, 1.88125, 0.0, 0.0, 0.0, 2.7125, -1.89, 2.625
38.8681490421, 0.0, -0.0, 0.0, -3.77125, 0.86625, 1.60125, 0.0, 0.0, 0.0, 4.75125, -1.4525, 3.815
38.9185199738, 0.0, -0.0, 0.0, -2.625, 0.41125, 6.51, 0.0, 0.0, 0.0, 0.41125, -2.8875, 8.54875
38.9687418938, 0.0, -0.0, 0.0, -3.38625, -0.945, 5.9325, 0.0, 0.0, 0.0, -1.155, -3.78, 6.02
39.0189509392, 0.0, -0.0, 0.0, -4.2875, -0.60375, 5.11, 0.0, 0.0, 0.0, -0.44625, -3.15, 4.4975
39.0691540241, 0.0, -0.0, 0.0, -4.3575, 0.28875, 4.15625, 0.0, 0.0, 0.0, -0.805, -2.35375, 3.5875
39.1193749905, 0.0, -0.0, 0.0, 2.16125, 2.14375, 6.23875, 0.0, 0.0, 0.0, 2.38875, -0.04375, 3.3775
39.1695899963, 0.0, -0.0, 0.0, -2.33625, 1.68875, 4.585, 0.0, 0.0, 0.0, 0.2625, -0.27125, 7.20125
39.219825983, 0.0, -0.0, 0.0, -2.065, 2.77375, 3.56125, 0.0, 0.0, 0.0, 1.88125, 0.06125, 4.40125
39.2700998783, 0.0, -0.0, 0.0, -4.15625, 2.1525, 3.28125, 0.0, 0.0, 0.0, -1.40875, -0.51625, 3.43875
39.3203730583, 0.0, -0.0, 0.0, -2.91375, 1.5225, 2.8, 0.0, 0.0, 0.0, 0.79625, -0.62125, 3.56125
39.3706889153, 0.0, -0.0, 0.0, -4.2875, 2.28375, -0.42, 0.0, 0.0, 0.0, 5.4775, 0.3325, 6.1775
39.4209549427, 0.0, -0.0, 0.0, -4.27, 2.59875, 3.70125, 0.0, 0.0, 0.0, -1.16375, -0.385, 2.30125
39.4717750549, 0.0, -0.0, 0.0, -3.465, 2.84375, 3.50875, 0.0, 0.0, 0.0, 0.0, 0.7875, 1.95125
39.5220780373, 0.0, -0.0, 0.0, -4.4275, 3.14125, 2.3625, 0.0, 0.0, 0.0, -1.42625, 1.19, 1.2425
39.5723390579, -0.0, 0.0, 0.0, -4.9, 3.82375, 1.9075, 0.0, 0.0, 0.0, -1.05, 1.19875, 1.86375
39.6226389408, 0.0, 0.0, 0.0, -6.2125, 4.2, 1.4175, 0.0, 0.0, 0.0, 1.04125, 2.38, 3.01
39.6730248928, -0.0, 0.0, 0.0, -7.11375, 4.68125, 6.83375, 0.0, 0.0, 0.0, -4.76, 2.6425, 9.0125
39.7234048843, -0.0, 0.0, 0.0, -6.88625, 8.11125, 18.8825, 0.0, 0.0, 0.0, -3.9375, 4.235, 16.73875
39.7737879753, -0.0, 0.0, 0.0, -7.2975, 7.455, 20.53625, 0.0, 0.0, 0.0, -4.13, 3.6225, 24.19375
39.8241770267, -0.0, 0.0, 0.0, -4.99625, 7.7875, 21.77, 0.0, 0.0, 0.0, -0.65625, 3.42125, 21.21875
39.8744680882, -0.0, 0.0, 0.0, -4.66375, 5.64375, 14.60375, 0.0, 0.0, 0.0, -1.12, 1.3825, 14.5075
39.9247748852, 0.0, 0.0, 0.0, -3.99875, 4.78625, 11.75125, 0.0, 0.0, 0.0, -1.07625, 1.35625, 11.15625
39.9750869274, -0.0, -0.0, 0.0, -5.48625, 2.91375, 8.88125, 0.0, 0.0, 0.0, -2.24875, 0.0525, 8.67125
40.0254778862, -0.0, -0.0, 0.0, -5.67875, 1.75875, 7.07875, 0.0, 0.0, 0.0, -1.79375, -1.14625, 6.16
40.0758390427, -0.0, -0.0, 0.0, -5.46875, 1.715, 6.64125, 0.0, 0.0, 0.0, -2.4325, -0.8225, 6.01125
40.1262609959, -0.0, -0.0, 0.0, -6.5625, 1.925, 7.0875, 0.0, 0.0, 0.0, -3.57, -0.98875, 5.1275
40.1765511036, -0.0, -0.0, 0.0, -7.1575, 0.7, 4.725, 0.0, 0.0, 0.0, -3.815, -1.19875, 5.9675
40.2268300056, -0.0, -0.0, 0.0, -9.12625, 1.8375, 6.3875, 0.0, 0.0, 0.0, -4.78625, -0.58625, 4.6375
40.2770528793, -0.0, -0.0, 0.0, -7.55125, 2.1175, 5.81875, 0.0, 0.0, 0.0, -4.41, 0.04375, 5.0925
40.3273561001, -0.0, -0.0, 0.0, -7.7875, 2.835, 6.8775, 0.0, 0.0, 0.0, -4.52375, 0.39375, 5.81
40.3775930405, -0.0, -0.0, 0.0, -6.23, 3.64875, 7.4375, 0.0, 0.0, 0.0, -3.17625, 0.27125, 4.15625
40.4284009933, 0.0, -0.0, -0.0, -3.92, 2.9225, -0.63875, 0.0, 0.0, 0.0, 1.19, 1.33875, -2.00375
40.4787011147, 0.0, 0.0, -0.0, -1.23375, 4.27, -7.58625, 0.0, 0.0, 0.0, 1.8375, 2.93125, -8.89875
40.5289409161, 0.0, 0.0, -0.0, -1.75875, 4.64625, -14.42, 0.0, 0.0, 0.0, 2.00375, 3.3775, -14.5075
40.5791199207, 0.0, 0.0, -0.0, -1.02375, 4.83, -15.4175, 0.0, 0.0, 0.0, 4.4275, 3.70125, -10.3425
40.629349947, 0.0, 0.0, -0.0, -3.31625, 4.27, -9.16125, 0.0, 0.0, 0.0, -1.5575, 2.17, -6.43125
40.6796689034, 0.0, 0.0, 0.0, -1.6975, 5.1975, 3.29875, 0.0, 0.0, 0.0, 0.63875, 2.695, -2.21375
40.7299408913, 0.0, 0.0, 0.0, -1.82, 4.235, 10.99, 0.0, 0.0, 0.0, -0.4375, 1.645, 11.4975
40.7802128792, 0.0, 0.0, 0.0, -2.80875, 5.74875, 18.8825, 0.0, 0.0, 0.0, 0.41125, 2.7475, 19.11875
40.8305358887, -0.0, 0.0, 0.0, -6.37, 6.58875, 21.4025, 0.0, 0.0, 0.0, -3.885, 4.05125, 19.11
40.8808419704, -0.0, 0.0, 0.0, -4.90875, 6.8775, 15.33875, 0.0, 0.0, 0.0, -1.93375, 3.29875, 17.63125
40.9311680794, -0.0, 0.0, 0.0, -9.555, 6.78125, 12.50375, 0.0, 0.0, 0.0, -5.18, 3.045, 10.75375
40.9814400673, -0.0, 0.0, 0.0, -6.65875, 5.95875, 9.1525, 0.0, 0.0, 0.0, -5.075, 3.45625, 8.47875
41.0316340923, -0.0, 0.0, 0.0, -8.46125, 6.22125, 8.63625, 0.0, 0.0, 0.0, -4.725, 3.45625, 7.11375
41.0819070339, -0.0, 0.0, 0.0, -7.55125, 5.90625, 5.71375, 0.0, 0.0, 0.0, -4.1825, 3.3425, 5.46875
41.1322009563, -0.0, 0.0, 0.0, -8.56625, 5.425, 5.39875, 0.0, 0.0, 0.0, -4.9175, 2.65125, 4.69875
41.182600975, -0.0, 0.0, 0.0, -6.20375, 5.25, 5.31125, 0.0, 0.0, 0.0, -2.77375, 2.66, 4.76875
41.2329530716, -0.0, 0.0, 0.0, -6.195, 4.4625, 4.43625, 0.0, 0.0, 0.0, -2.00375, 1.81125, 4.62875
41.2832870483, -0.0, -0.0, 0.0, -4.9, 3.36, 4.095, 0.0, 0.0, 0.0, -1.04125, 1.11125, 4.3925
41.3336160183, 0.0, 0.0, 0.0, -3.91125, 3.85875, 3.815, 0.0, 0.0, 0.0, 0.0175, 0.56, 4.41875
41.38397789, 0.0, -0.0, 0.0, -3.01, 3.3775, 7.6825, 0.0, 0.0, 0.0, 0.11375, 0.69125, 7.21
41.4344120026, -0.0, -0.0, 0.0, -4.73375, 2.4675, 9.6775, 0.0, 0.0, 0.0, -0.28875, -0.02625, 9.24875
41.484705925, 0.0, -0.0, 0.0, -2.9925, 2.38875, 8.82875, 0.0, 0.0, 0.0, 0.72625, -0.035, 7.3675
41.535022974, 0.0, -0.0, 0.0, -2.44125, 2.05625, 6.02, 0.0, 0.0, 0.0, 0.58625, -0.7, 5.39
41.5852689743, 0.0, -0.0, 0.0, -2.9225, 1.79375, 5.10125, 0.0, 0.0, 0.0, 0.0525, -0.58625, 4.515
41.635488987, 0.0, -0.0, 0.0, -3.24625, 2.40625, 4.025, 0.0, 0.0, 0.0, 0.35, 0.3675, 3.955
41.6858808994, 0.0, -0.0, 0.0, -3.33375, 2.8525, 4.3225, 0.0, 0.0, 0.0, -1.295, 0.315, 3.49125
41.7361960411, 0.0, -0.0, 0.0, -3.84125, 2.5725, 4.06875, 0.0, 0.0, 0.0, 0.07, 0.55125, 3.50875
41.7864480019, 0.0, -0.0, 0.0, -3.2375, 1.9775, 3.96375, 0.0, 0.0, 0.0, -0.9625, -0.18375, 3.15
41.836810112, 0.0, -0.0, 0.0, -4.1475, 1.91625, 4.0775, 0.0, 0.0, 0.0, -0.37625, -0.1575, 3.15
41.8872408867, 0.0, -0.0, 0.0, -5.01375, 2.4325, 4.9175, 0.0, 0.0, 0.0, 0.42875, -0.805, 8.72375
41.937762022, 0.0, 0.0, 0.0, -3.7275, 3.4475, 15.89, 0.0, 0.0, 0.0, -1.0675, 0.945, 7.1225
41.9879920483, 0.0, 0.0, 0.0, -0.48125, 4.41, 18.2875, 0.0, 0.0, 0.0, 0.81375, 1.68, 17.70125
42.0382120609, 0.0, 0.0, 0.0, -3.4475, 6.1425, 24.255, 0.0, 0.0, 0.0, 0.0, 2.5375, 21.8575
42.0884859562, 0.0, 0.0, 0.0, -4.52375, 5.25875, 20.3175, 0.0, 0.0, 0.0, -3.535, 1.5575, 22.6625
42.1388390064, -0.0, 0.0, 0.0, -6.93875, 4.06875, 18.095, 0.0, 0.0, 0.0, -0.98875, 1.09375, 16.485
42.1891019344, -0.0, 0.0, 0.0, -6.06375, 3.42125, 13.34375, 0.0, 0.0, 0.0, -3.185, 0.48125, 13.5975
42.2393419743, -0.0, 0.0, 0.0, -7.1575, 3.47375, 11.2175, 0.0, 0.0, 0.0, -2.93125, 0.945, 10.42125
42.2896230221, -0.0, 0.0, 0.0, -5.74, 4.0425, 9.0125, 0.0, 0.0, 0.0, -2.8, 1.505, 9.23125
42.3399529457, -0.0, 0.0, 0.0, -5.18, 5.0575, 8.75875, 0.0, 0.0, 0.0, -2.03875, 2.26625, 7.67375
42.3902800083, -0.0, 0.0, 0.0, -5.88875, 5.20625, 7.58625, 0.0, 0.0, 0.0, -1.98625, 2.695, 6.8075
42.4405229092, -0.0, 0.0, 0.0, -5.3025, 6.20375, 6.95625, 0.0, 0.0, 0.0, -2.49375, 3.15, 5.3725
42.490860939, -0.0, 0.0, 0.0, -4.66375, 6.2475, 6.51875, 0.0, 0.0, 0.0, -2.35375, 3.4475, 5.0925
42.5411760807, -0.0, 0.0, 0.0, -5.355, 5.635, 4.795, 0.0, 0.0, 0.0, -1.32125, 3.08, 5.45125
42.5914518833, -0.0, 0.0, 0.0, -5.39, 5.215, 4.76875, 0.0, 0.0, 0.0, -2.4325, 2.6775, 4.08625
42.641769886, -0.0, 0.0, 0.0, -5.59125, 4.3575, 7.8575, 0.0, 0.0, 0.0, -2.66, 2.66875, 2.9575
42.6924540997, -0.0, 0.0, 0.0, -4.76, 5.3025, 3.4475, 0.0, 0.0, 0.0, -1.085, 3.12375, 3.87625
42.7426509857, -0.0, 0.0, 0.0, -4.7775, 4.78625, 3.115, 0.0, 0.0, 0.0, -1.33, 2.45, 2.33625
42.7929461002, -0.0, 0.0, 0.0, -6.3875, 4.75125, 2.2225, 0.0, 0.0, 0.0, -1.04125, 2.6775, 2.135
42.8432159424, -0.0, 0.0, 0.0, -5.90625, 4.33125, 1.88125, 0.0, 0.0, 0.0, -3.22875, 2.555, 1.37375
42.8934209347, -0.0, 0.0, 0.0, -5.0925, 4.2175, 1.8025, 0.0, 0.0, 0.0, -1.86375, 2.87875, 0.42
42.943625927, -0.0, 0.0, 0.0, -5.64375, 4.2, 1.51375, 0.0, 0.0, 0.0, -1.575, 2.44125, 1.435
42.9939138889, -0.0, 0.0, 0.0, -4.7425, 4.41, 0.83125, 0.0, 0.0, 0.0, -0.34125, 2.35375, 1.0325
43.0441730022, 0.0, 0.0, 0.0, -3.75375, 3.92875, 0.42875, 0.0, 0.0, 0.0, -0.42, 2.19625, 0.48125
43.0943799019, 0.0, 0.0, 0.0, -4.4625, 3.98125, 0.07, 0.0, 0.0, 0.0, 0.42, 2.16125, 0.6125
43.1446518898, 0.0, 0.0, 0.0, -3.43875, 5.1625, 3.6575, 0.0, 0.0, 0.0, 0.5075, 2.625, 3.89375
43.1948590279, 0.0, 0.0, 0.0, -2.7475, 4.4275, 2.73, 0.0, 0.0, 0.0, 0.525, 2.24875, 3.98125
43.2451000214, 0.0, 0.0, 0.0, -3.26375, 3.6225, 1.33, 0.0, 0.0, 0.0, 0.69125, 1.05, 2.09125
43.2952980995, 0.0, -0.0, 0.0, -3.01875, 3.38625, 1.645, 0.0, 0.0, 0.0, 0.5075, 1.4525, 0.32375
43.3455901146, 0.0, -0.0, -0.0, -2.72125, 2.9575, 0.0525, 0.0, 0.0, 0.0, 1.5225, 1.3475, 0.09625
43.3959600925, 0.0, -0.0, -0.0, -1.7325, 2.70375, -0.62125, 0.0, 0.0, 0.0, 2.45, 1.14625, -0.34125
43.4464099407, 0.0, -0.0, -0.0, -2.00375, 2.5375, 0.105, 0.0, 0.0, 0.0, 1.25125, -0.0525, -0.74375
43.4967770576, 0.0, -0.0, -0.0, -0.63, 2.19625, -0.805, 0.0, 0.0, 0.0, 3.01875, 0.35875, -1.11125
43.5470569134, 0.0, -0.0, -0.0, -0.69125, 1.98625, -0.9625, 0.0, 0.0, 0.0, 2.44125, 0.18375, -1.96875
43.5975599289, 0.0, -0.0, -0.0, -1.28625, 2.28375, -1.21625, 0.0, 0.0, 0.0, 3.63125, 0.02625, -1.715
43.6478290558, 0.0, -0.0, -0.0, -1.05875, 2.0125, -1.32125, 0.0, 0.0, 0.0, 2.7125, 0.21875, -1.84625
43.6982638836, 0.0, -0.0, -0.0, -1.54, 2.00375, -1.96875, 0.0, 0.0, 0.0, 2.345, -0.13125, -2.28375
43.7485721111, 0.0, 0.0, -0.0, -1.16375, 4.24375, -2.135, 0.0, 0.0, 0.0, 2.6775, 0.1575, -2.07375
43.7987320423, 0.0, -0.0, -0.0, -1.8375, 2.42375, -1.84625, 0.0, 0.0, 0.0, 1.75, 0.5075, -2.0125
43.8489840031, 0.0, -0.0, -0.0, -0.93625, 2.79125, -2.87, 0.0, 0.0, 0.0, 2.7825, 0.525, -2.26625
43.8993170261, 0.0, 0.0, 0.0, -2.10875, 3.4825, 1.11125, 0.0, 0.0, 0.0, 0.98875, 0.875, -1.4175
43.949657917, 0.0, 0.0, 0.0, -2.44125, 3.57, 1.91625, 0.0, 0.0, 0.0, 1.4875, 1.39125, 1.75
44.0000100136, 0.0, -0.0, -0.0, -2.8175, 3.0975, -0.2975, 0.0, 0.0, 0.0, 1.39125, 0.63, -0.35
44.0503470898, 0.0, -0.0, -0.0, -3.33375, 2.8525, -1.00625, 0.0, 0.0, 0.0, 0.76125, 0.72625, 0.0175
44.1005980968, 0.0, -0.0, -0.0, -3.29, 2.8875, -1.3825, 0.0, 0.0, 0.0, 0.1225, 0.48125, -1.5575
44.1508359909, 0.0, -0.0, -0.0, -2.1875, 3.19375, -0.93625, 0.0, 0.0, 0.0, 0.7875, 1.68875, -1.5575
44.2010660172, 0.0, 0.0, -0.0, -2.75625, 3.6225, -1.4875, 0.0, 0.0, 0.0, 1.0675, 1.70625, -2.065
44.2512741089, 0.0, 0.0, -0.0, -1.75, 3.605, -1.8725, 0.0, 0.0, 0.0, 1.16375, 1.84625, -4.13
44.3014540672, 0.0, -0.0, -0.0, -2.6775, 3.08, -1.68, 0.0, 0.0, 0.0, 0.93625, 0.83125, -2.2225
44.3516559601, 0.0, -0.0, -0.0, -2.51125, 2.94875, -2.7475, 0.0, 0.0, 0.0, 0.0525, 1.12, -3.605
44.4018509388, 0.0, -0.0, -0.0, -2.6775, 2.65125, -2.94875, 0.0, 0.0, 0.0, 0.56, 0.42, -4.36625
44.452119112, 0.0, -0.0, -0.0, -3.99875, 2.905, -3.56125, 0.0, 0.0, 0.0, -0.32375, 0.97125, -5.81875
44.5023829937, 0.0, -0.0, -0.0, -4.34875, 2.79125, -4.305, 0.0, 0.0, 0.0, -1.11125, 1.19, -5.81
44.5525989532, 0.0, 0.0, -0.0, -4.375, 3.40375, -4.2, 0.0, 0.0, 0.0, -0.8225, 1.3125, -5.5125
44.6028211117, 0.0, -0.0, -0.0, -4.445, 3.22875, -4.66375, 0.0, 0.0, 0.0, -0.4375, 1.365, -4.3225
44.653042078, -0.0, -0.0, -0.0, -5.60875, 3.05375, -5.3725, 0.0, 0.0, 0.0, -0.595, 1.925, -4.68125
44.7032721043, 0.0, 0.0, -0.0, -3.9725, 3.745, -5.50375, 0.0, 0.0, 0.0, -1.155, 2.31, -4.57625
44.7535710335, -0.0, 0.0, -0.0, -5.06625, 4.36625, -4.90875, 0.0, 0.0, 0.0, -1.49625, 2.72125, -5.6175
44.804502964, -0.0, 0.0, -0.0, -5.4075, 4.0775, -5.1975, 0.0, 0.0, 0.0, -2.7825, 3.01875, -5.95875
44.8548660278, -0.0, 0.0, -0.0, -5.775, 4.66375, -5.60875, 0.0, 0.0, 0.0, -1.26, 3.59625, -6.125
44.9051640034, -0.0, 0.0, -0.0, -5.73125, 4.6025, -4.66375, 0.0, 0.0, 0.0, -1.855, 3.21125, -5.46
44.9556670189, -0.0, 0.0, -0.0, -6.1425, 4.095, -4.66375, 0.0, 0.0, 0.0, -2.5725, 3.08875, -5.66125
45.0059130192, -0.0, 0.0, -0.0, -5.53875, 4.20875, -5.97625, 0.0, 0.0, 0.0, -1.39125, 2.905, -5.55625
45.0561499596, -0.0, 0.0, -0.0, -6.1775, 4.01625, -5.55625, 0.0, 0.0, 0.0, -1.88125, 2.45, -6.0375
45.1063621044, 0.0, 0.0, -0.0, -4.55, 3.99, -6.125, 0.0, 0.0, 0.0, -1.1725, 2.72125, -6.9125
45.1566569805, 0.0, 0.0, -0.0, -4.52375, 3.99875, -5.53, 0.0, 0.0, 0.0, -0.69125, 2.37125, -6.74625
45.2070178986, 0.0, 0.0, -0.0, -2.79125, 3.92, -4.61125, 0.0, 0.0, 0.0, 0.56, 2.1875, -5.985
45.2573509216, 0.0, -0.0, -0.0, -3.49125, 2.73, -6.055, 0.0, 0.0, 0.0, 0.83125, 1.58375, -6.22125
45.3076739311, 0.0, -0.0, -0.0, -3.54375, 2.9225, -5.46, 0.0, 0.0, 0.0, 0.21, 1.14625, -5.4775
45.3580129147, 0.0, -0.0, -0.0, -3.17625, 2.66, -5.0225, 0.0, 0.0, 0.0, 0.98, 0.945, -6.7725
45.4084579945, 0.0, -0.0, -0.0, -3.47375, 2.44125, -5.11875, 0.0, 0.0, 0.0, 0.28, 0.70875, -4.97
45.4587481022, 0.0, -0.0, -0.0, -2.87875, 2.59, -4.6375, 0.0, 0.0, 0.0, 0.805, 0.98875, -4.83
45.5090119839, 0.0, -0.0, -0.0, -2.26625, 2.61625, -4.2875, 0.0, 0.0, 0.0, 0.35, 0.76125, -5.0925
45.5592200756, 0.0, -0.0, -0.0, -2.73875, 0.105, -5.01375, 0.0, 0.0, 0.0, 1.68875, 0.49875, -3.75375
45.6094219685, 0.0, -0.0, -0.0, -1.4875, 2.56375, -3.35125, 0.0, 0.0, 0.0, 1.46125, 0.63875, -5.145
45.6597108841, 0.0, -0.0, -0.0, -2.17875, 2.86125, -4.22625, 0.0, 0.0, 0.0, 1.79375, 1.1725, -3.89375
45.710064888, 0.0, -0.0, -0.0, -4.025, 2.45875, -4.75125, 0.0, 0.0, 0.0, 1.0325, 0.98, -4.33125
45.760422945, 0.0, -0.0, -0.0, -2.765, 2.79125, -3.43, 0.0, 0.0, 0.0, 0.49, 1.1725, -3.80625
45.8106710911, 0.0, -0.0, -0.0, -3.03625, 3.21125, -3.465, 0.0, 0.0, 0.0, 1.715, 0.8225, -3.0975
45.860902071, 0.0, -0.0, -0.0, -3.7625, 2.68625, -2.54625, 0.0, 0.0, 0.0, -0.28875, 1.925, -3.43875
45.9111840725, 0.0, -0.0, -0.0, -2.975, 3.3075, -2.79125, 0.0, 0.0, 0.0, 1.3475, 0.95375, -2.3625
45.9614450932, 0.0, -0.0, -0.0, -3.605, 2.1875, -1.81125, 0.0, 0.0, 0.0, 0.315, 0.595, -1.77625
46.0116560459, 0.0, -0.0, -0.0, -2.8175, 2.555, -1.26875, 0.0, 0.0, 0.0, 0.67375, 0.46375, -1.505
46.0619039536, 0.0, -0.0, -0.0, -3.0975, 2.1, -2.38875, 0.0, 0.0, 0.0, 0.13125, 0.76125, -2.33625
46.1121349335, 0.0, 0.0, -0.0, -0.385, 4.76875, 0.18375, 0.0, 0.0, 0.0, -0.32375, 1.645, -1.07625
46.1624929905, 0.0, 0.0, -0.0, -1.42625, 4.15625, -0.1925, 0.0, 0.0, 0.0, -1.4525, 3.01, -1.8375
46.2128500938, 0.0, 0.0, -0.0, -1.12, 4.8125, -0.665, 0.0, 0.0, 0.0, 0.4375, 4.41875, -3.33375
46.2630810738, 0.0, 0.0, -0.0, -2.61625, 4.26125, -3.4825, 0.0, 0.0, 0.0, 0.91875, 2.03875, -2.6425
46.3132441044, 0.0, 0.0, -0.0, -2.1, 4.20875, -1.84625, 0.0, 0.0, 0.0, 1.435, 2.835, -3.08
46.3635079861, 0.0, 0.0, -0.0, -3.045, 4.6025, -2.91375, 0.0, 0.0, 0.0, -0.77875, 3.01, -4.83
46.4137859344, 0.0, 0.0, 0.0, -4.19125, 6.5625, 7.14, 0.0, 0.0, 0.0, -3.8675, 3.885, 6.95625
46.4640929699, 0.0, 0.0, 0.0, -3.7625, 9.3275, 12.55625, 0.0, 0.0, 0.0, -0.09625, 5.59125, 14.42875
46.5144319534, -0.0, 0.0, 0.0, -5.73125, 9.47625, 18.2525, 0.0, 0.0, 0.0, -0.28875, 6.57125, 19.25
46.5646660328, -0.0, 0.0, 0.0, -6.18625, 9.73, 20.0375, 0.0, 0.0, 0.0, -0.53375, 4.76, 17.4125
46.6148700714, 0.0, 0.0, 0.0, -2.5375, 7.13125, 14.93625, 0.0, 0.0, 0.0, -1.72375, 4.235, 12.215
46.6657819748, 0.0, 0.0, 0.0, -1.855, 6.43125, 9.14375, 0.0, 0.0, 0.0, 0.93625, 3.80625, 6.545
46.7162129879, 0.0, 0.0, 0.0, -2.79125, 5.04, 4.41875, 0.0, 0.0, 0.0, 0.7175, 3.01, 4.8825
46.7664299011, 0.0, 0.0, 0.0, -2.89625, 4.64625, 4.375, 0.0, 0.0, 0.0, -0.13125, 1.7325, 3.21125
46.817262888, 0.0, -0.0, 0.0, -4.20875, 3.33375, 2.6075, 0.0, 0.0, 0.0, -1.1375, 0.77, 1.7325
46.8675351143, -0.0, -0.0, 0.0, -5.2675, 2.59, 2.66875, 0.0, 0.0, 0.0, -1.40875, 0.7175, 2.09125
46.9177780151, -0.0, -0.0, 0.0, -5.425, 2.75625, 2.555, 0.0, 0.0, 0.0, -2.00375, 0.48125, 1.5925
46.9680159092, -0.0, -0.0, 0.0, -6.825, 2.31, 1.07625, 0.0, 0.0, 0.0, -2.98375, 0.14, 0.77875
47.0183238983, -0.0, -0.0, 0.0, -6.25625, 2.03875, -0.7175, 0.0, 0.0, 0.0, -3.47375, -0.245, 0.9625
47.0686221123, -0.0, 0.0, -0.0, -7.1575, 4.48, 0.69125, 0.0, 0.0, 0.0, -4.41, 0.4025, -1.72375
47.1188800335, -0.0, -0.0, -0.0, -6.86, 2.47625, -0.60375, 0.0, 0.0, 0.0, -2.73, 0.46375, -1.53125
47.1691110134, -0.0, -0.0, -0.0, -6.78125, 2.8175, -0.35, 0.0, 0.0, 0.0, -3.675, 0.7525, -1.2775
47.2198309898, -0.0, -0.0, -0.0, -7.48125, 2.9225, -1.39125, 0.0, 0.0, 0.0, -3.52625, 0.32375, -1.8725
47.2702720165, -0.0, -0.0, -0.0, -7.14875, 3.1675, -0.28875, 0.0, 0.0, 0.0, -3.64875, 0.77, -1.8725
47.3205389977, -0.0, -0.0, -0.0, -6.81625, 2.05625, -0.0875, 0.0, 0.0, 0.0, -3.31625, 0.2975, -1.74125
47.3707709312, 0.0, -0.0, 0.0, -3.45625, 3.19375, 1.68875, 0.0, 0.0, 0.0, -1.39125, 0.49, 0.98875
47.4210391045, -0.0, 0.0, 0.0, -6.85125, 3.9725, 7.56875, 0.0, 0.0, 0.0, -3.31625, 0.7, 9.59875
47.4712910652, -0.0, 0.0, 0.0, -6.41375, 5.52125, 17.36, 0.0, 0.0, 0.0, -3.08875, 2.05625, 19.145
47.5215229988, -0.0, 0.0, 0.0, -5.67875, 6.7375, 22.155, 0.0, 0.0, 0.0, -2.37125, 3.03625, 21.42875
47.5718450546, 0.0, 0.0, 0.0, -3.325, 5.775, 20.86875, 0.0, 0.0, 0.0, -2.00375, 0.945, 19.34625
47.6222190857, 0.0, 0.0, 0.0, -1.96875, 4.6375, 15.67125, 0.0, 0.0, 0.0, -0.76125, -0.07, 16.555
47.6726350784, 0.0, 0.0, 0.0, -5.0925, 3.70125, 11.13875, 0.0, 0.0, 0.0, 1.505, 1.46125, 8.86375
47.7228779793, 0.0, 0.0, 0.0, -3.54375, 2.415, 6.09, 0.0, 0.0, 0.0, -0.20125, -0.13125, 5.31125
47.7733769417, 0.0, -0.0, 0.0, -3.73625, 2.2925, 3.605, 0.0, 0.0, 0.0, 0.0175, -0.3325, 3.80625
47.8235731125, 0.0, -0.0, 0.0, -4.2, 1.3475, 2.02125, 0.0, 0.0, 0.0, -1.33, -0.74375, 2.31875
47.8737630844, -0.0, -0.0, 0.0, -4.85625, 1.9425, 3.255, 0.0, 0.0, 0.0, -2.16125, -0.60375, 1.75875
47.9239730835, -0.0, -0.0, -0.0, -6.23875, -0.07875, -7.6825, 0.0, 0.0, 0.0, -1.96875, -1.25125, -9.02125
47.9742519855, -0.0, -0.0, -0.0, -6.335, -2.59875, -31.605, 0.0, 0.0, 0.0, -0.76125, -2.58125, -30.7125
48.0245380402, 0.0, -0.0, -0.0, -6.9825, -4.52375, -47.99375, 0.0, 0.0, 0.0, -0.00875, -2.87875, -47.705
48.074794054, -0.0, -0.0, -0.0, -6.7725, -6.50125, -71.085, 0.0, 0.0, 0.0, -0.35, -2.485, -67.3225
48.1250510216, -0.0, -0.0, -0.0, -5.20625, -7.63875, -78.07625, 0.0, 0.0, 0.0, -1.6275, -2.2925, -78.26875
48.1753220558, -0.0, -0.0, -0.0, -5.10125, -6.51, -84.04375, 0.0, 0.0, 0.0, -1.25125, -0.32375, -84.70875
48.2256159782, -0.0, -0.0, -0.0, -9.17, -5.36375, -90.67625, 0.0, 0.0, 0.0, -1.09375, 0.06125, -88.13875
48.275908947, -0.0, -0.0, -0.0, -8.33, -4.3225, -95.45375, 0.0, 0.0, 0.0, -2.37125, 1.5575, -95.33125
48.3262031078, 0.0, 0.0, -0.0, -6.86875, -2.66875, -99.56625, 0.0, 0.0, 0.0, 0.945, 3.98125, -96.005
48.3764779568, -0.0, 0.0, -0.0, -8.19, -0.77875, -99.295, 0.0, 0.0, 0.0, -2.1525, 5.97625, -96.94125
48.4267659187, -0.0, 0.0, -0.0, -5.3375, 3.6225, -92.25125, 0.0, 0.0, 0.0, -0.385, 9.79125, -92.54875
48.4770190716, 0.0, 0.0, -0.0, -3.4475, 5.4775, -85.6275, 0.0, 0.0, 0.0, 0.72625, 10.68375, -87.045
48.5272810459, 0.0, 0.0, -0.0, -3.57, 4.795, -84.735, 0.0, 0.0, 0.0, 1.8025, 10.78875, -82.2325
48.5775120258, 0.0, 0.0, -0.0, -0.525, 6.7375, -81.89125, 0.0, 0.0, 0.0, 6.15125, 10.745, -78.225
48.6277918816, 0.0, 0.0, -0.0, 1.155, 8.51375, -68.5825, 0.0, 0.0, 0.0, 6.125, 12.8625, -65.09125
48.6781480312, 0.0, 0.0, -0.0, 0.735, 6.685, -61.355, 0.0, 0.0, 0.0, 5.99375, 9.52, -56.7175
48.7284429073, 0.0, 0.0, -0.0, 1.32125, 5.76625, -55.39625, 0.0, 0.0, 0.0, 7.76125, 8.28625, -53.57625
48.7786939144, 0.0, 0.0, -0.0, 2.56375, 1.5925, -47.81875, 0.0, 0.0, 0.0, 7.735, 3.08, -46.61125
48.8290400505, 0.0, 0.0, -0.0, 5.425, 0.8575, -46.4275, 0.0, 0.0, 0.0, 9.37125, 2.33625, -43.9775
48.8793110847, 0.0, 0.0, -0.0, 3.71, 0.4025, -39.83875, 0.0, 0.0, 0.0, 8.49625, 2.10875, -40.50375
48.9296219349, 0.0, -0.0, -0.0, 4.97875, 0.1225, -39.33125, 0.0, 0.0, 0.0, 9.5375, 1.855, -37.61625
48.9799571037, 0.0, 0.0, -0.0, 5.3375, 1.51375, -35.805, 0.0, 0.0, 0.0, 9.94875, 2.26625, -34.3175
49.0305678844, 0.0, 0.0, -0.0, 6.8775, 2.70375, -32.80375, 0.0, 0.0, 0.0, 11.57625, 3.57875, -31.1675
49.0808970928, 0.0, 0.0, -0.0, 6.53625, 3.28125, -29.81125, 0.0, 0.0, 0.0, 12.04875, 4.05125, -29.61
49.131248951, 0.0, 0.0, -0.0, 7.4725, 5.04, -29.49625, 0.0, 0.0, 0.0, 10.815, 4.515, -21.49
49.1816170216, 0.0, 0.0, -0.0, 7.0525, 7.74375, -12.43375, 0.0, 0.0, 0.0, 13.55375, 7.20125, -11.095
49.2319800854, 0.0, 0.0, -0.0, 9.03, 9.54625, -4.095, 0.0, 0.0, 0.0, 14.04375, 8.09375, -2.42375
49.2824099064, 0.0, 0.0, 0.0, 12.88875, 8.6975, 1.6975, 0.0, 0.0, 0.0, 15.37375, 6.92125, 2.24
49.3327329159, 0.0, 0.0, 0.0, 15.225, 8.32125, 2.38875, 0.0, 0.0, 0.0, 18.06, 4.75125, -0.07
49.3829870224, 0.0, 0.0, -0.0, 15.645, 5.18, -6.55375, 0.0, 0.0, 0.0, 18.80375, 2.31, -6.055
49.433218956, 0.0, -0.0, -0.0, 15.8025, -0.0175, -11.69875, 0.0, 0.0, 0.0, 19.425, -1.7675, -11.445
49.4834299088, 0.0, -0.0, -0.0, 15.82, -2.5375, -11.68125, 0.0, 0.0, 0.0, 19.285, -4.655, -11.76875
49.5336039066, 0.0, -0.0, -0.0, 11.96125, -5.8275, -10.78, 0.0, 0.0, 0.0, 16.1525, -7.16625, -9.45
49.583837986, 0.0, -0.0, -0.0, 11.6725, -6.53625, -8.75, 0.0, 0.0, 0.0, 15.11125, -8.89875, -9.86125
49.6340959072, 0.0, -0.0, -0.0, 8.70625, -7.875, -9.10875, 0.0, 0.0, 0.0, 12.25875, -9.765, -9.02125
49.6843960285, 0.0, -0.0, -0.0, 7.0525, -8.1025, -11.29625, 0.0, 0.0, 0.0, 11.03375, -9.84375, -12.1975
49.7347068787, 0.0, -0.0, -0.0, 4.05125, -8.505, -12.13625, 0.0, 0.0, 0.0, 8.0325, -10.15875, -14.1225
49.7849600315, 0.0, -0.0, -0.0, 2.695, -9.0475, -13.67625, 0.0, 0.0, 0.0, 6.09, -9.72125, -14.8225
49.8352348804, 0.0, -0.0, -0.0, 1.21625, -8.33875, -14.51625, 0.0, 0.0, 0.0, 5.59125, -9.26625, -16.61625
49.8854379654, 0.0, -0.0, -0.0, -1.12, -7.77, -15.4875, 0.0, 0.0, 0.0, 1.16375, -8.58375, -15.37375
49.9358110428, 0.0, -0.0, -0.0, -2.73875, -7.35875, -14.0175, 0.0, 0.0, 0.0, 1.19, -8.39125, -14.11375
49.986082077, 0.0, -0.0, -0.0, -4.62875, -7.02625, -11.92625, 0.0, 0.0, 0.0, -1.2425, -7.88375, -14.175
50.03627491, -0.0, -0.0, -0.0, -6.01125, -5.985, -13.5975, 0.0, 0.0, 0.0, -1.715, -7.48125, -13.5975
50.087061882, -0.0, -0.0, -0.0, -7.04375, -5.81875, -12.6175, 0.0, 0.0, 0.0, -2.45, -6.6675, -14.4375
50.137264967, -0.0, -0.0, -0.0, -10.92, -3.3775, -6.65, 0.0, 0.0, 0.0, -3.605, -4.66375, -7.735
50.1875650883, -0.0, -0.0, -0.0, -7.63875, -2.93125, -6.72, 0.0, 0.0, 0.0, -6.51, -4.15625, -7.455
50.2378249168, -0.0, -0.0, -0.0, -8.98625, -0.79625, -5.57375, 0.0, 0.0, 0.0, -5.53, -4.48, -8.30375
50.2881090641, -0.0, -0.0, -0.0, -10.325, -0.07875, -4.9175, 0.0, 0.0, 0.0, -6.615, -1.645, -5.78375
50.3383319378, -0.0, -0.0, -0.0, -9.31875, 1.19, -4.99625, 0.0, 0.0, 0.0, -6.39625, -0.76125, -4.5675
50.3886260986, -0.0, -0.0, -0.0, -9.9575, 1.4175, -4.13875, 0.0, 0.0, 0.0, -7.0, 0.2625, -4.15625
50.4389839172, -0.0, -0.0, -0.0, -11.80375, 2.70375, -3.2375, 0.0, 0.0, 0.0, -7.455, 1.4875, -4.64625
50.4893350601, -0.0, -0.0, -0.0, -10.50875, 2.52875, -2.9925, 0.0, 0.0, 0.0, -7.70875, 1.225, -2.24875
50.5396029949, -0.0, 0.0, -0.0, -12.11875, 4.13875, -2.1875, 0.0, 0.0, 0.0, -8.49625, 2.26625, -5.46875
50.5898420811, -0.0, 0.0, -0.0, -11.40125, 4.8125, -3.05375, 0.0, 0.0, 0.0, -8.82, 2.66875, -4.64625
50.6400659084, -0.0, 0.0, -0.0, -12.34625, 5.64375, -3.77125, 0.0, 0.0, 0.0, -8.49625, 3.535, -3.5525
50.6903660297, -0.0, 0.0, -0.0, -9.56375, 6.3525, -2.80875, 0.0, 0.0, 0.0, -8.7325, 5.11, -4.17375
50.7406599522, -0.0, 0.0, -0.0, -11.78625, 6.93875, -3.96375, 0.0, 0.0, 0.0, -7.42, 5.6, -3.63125
50.7908830643, -0.0, 0.0, -0.0, -12.1275, 8.3125, -3.33375, 0.0, 0.0, 0.0, -7.7525, 6.57125, -3.77125
50.841137886, -0.0, 0.0, -0.0, -11.6025, 8.47, -3.05375, 0.0, 0.0, 0.0, -7.945, 6.79, -3.43875
50.8915588856, -0.0, 0.0, -0.0, -12.3375, 8.1025, -3.045, 0.0, 0.0, 0.0, -7.7175, 6.44, -1.855
50.9417281151, -0.0, 0.0, -0.0, -10.6225, 8.89875, -2.37125, 0.0, 0.0, 0.0, -6.18625, 7.245, -1.6625
50.9919118881, -0.0, 0.0, -0.0, -10.0275, 9.05625, -1.93375, 0.0, 0.0, 0.0, -6.48375, 7.11375, -1.5575
51.0422198772, -0.0, 0.0, -0.0, -10.49125, 9.415, -0.84875, 0.0, 0.0, 0.0, -6.25625, 7.4025, -1.0675
51.092484951, -0.0, 0.0, -0.0, -9.625, 10.255, 0.14875, 0.0, 0.0, 0.0, -6.23875, 7.4375, -0.6475
51.1428439617, -0.0, 0.0, -0.0, -9.52875, 9.44125, -1.575, 0.0, 0.0, 0.0, -6.23875, 7.8575, -0.0525
51.1931378841, -0.0, 0.0, -0.0, -8.23375, 9.3625, -0.9275, 0.0, 0.0, 0.0, -5.01375, 7.84, 0.1575
51.2433400154, -0.0, 0.0, -0.0, -8.75875, 9.45875, -0.4375, 0.0, 0.0, 0.0, -5.25, 7.55125, -0.1225
51.2935400009, -0.0, 0.0, 0.0, -8.26875, 9.975, 1.6625, 0.0, 0.0, 0.0, -4.68125, 7.455, 0.7
51.3437459469, -0.0, 0.0, 0.0, -6.83375, 9.94875, 0.83125, 0.0, 0.0, 0.0, -4.1125, 7.51625, 0.9625
51.3940339088, -0.0, 0.0, 0.0, -6.9125, 9.37125, 1.75, 0.0, 0.0, 0.0, -2.8, 6.99125, 1.5575
51.4443860054, -0.0, 0.0, 0.0, -6.1425, 9.10875, 2.82625, 0.0, 0.0, 0.0, -3.3075, 6.8425, 0.83125
51.494674921, -0.0, 0.0, 0.0, -5.775, 9.1175, 2.275, 0.0, 0.0, 0.0, -1.54875, 6.755, 2.35375
51.5449690819, -0.0, 0.0, 0.0, -5.775, 9.0125, 3.99875, 0.0, 0.0, 0.0, -2.695, 6.60625, 2.065
51.5952589512, -0.0, 0.0, 0.0, -5.81, 8.39125, 3.255, 0.0, 0.0, 0.0, -2.9575, 6.0375, 2.54625
51.6455800533, -0.0, 0.0, 0.0, -5.08375, 7.98875, 2.94875, 0.0, 0.0, 0.0, -2.87875, 5.915, 2.345
51.6960821152, -0.0, 0.0, 0.0, -6.36125, 7.00875, 2.7475, 0.0, 0.0, 0.0, -3.24625, 5.01375, 2.17
51.7463700771, -0.0, 0.0, 0.0, -4.76, 6.90375, 1.68875, 0.0, 0.0, 0.0, -1.86375, 4.55875, 2.7475
51.7965819836, -0.0, 0.0, 0.0, -5.29375, 6.895, 3.08875, 0.0, 0.0, 0.0, -1.44375, 4.7425, 2.765
51.8468580246, -0.0, 0.0, 0.0, -6.13375, 6.2475, 2.52875, 0.0, 0.0, 0.0, -1.085, 4.55875, 3.19375
51.8971250057, -0.0, 0.0, 0.0, -5.81875, 6.44, 3.43, 0.0, 0.0, 0.0, -1.11125, 4.34875, 2.2225
51.9473359585, -0.0, 0.0, 0.0, -4.7775, 6.69375, 2.6425, 0.0, 0.0, 0.0, -1.435, 3.955, 2.205
51.9979450703, 0.0, 0.0, -0.0, -4.61125, 6.41375, 0.62125, 0.0, 0.0, 0.0, -0.55125, 4.41, 0.0175
52.0481529236, -0.0, 0.0, -0.0, -5.80125, 5.67875, -0.6125, 0.0, 0.0, 0.0, -2.37125, 3.96375, -0.14875
52.0984470844, -0.0, 0.0, -0.0, -4.8825, 4.83, -2.0825, 0.0, 0.0, 0.0, -2.03875, 3.3775, -2.03
52.1487629414, -0.0, 0.0, 0.0, -9.77375, 6.0375, 2.94, 0.0, 0.0, 0.0, -10.26375, 4.34875, 6.57125
52.1989428997, -0.0, 0.0, 0.0, -6.23875, 7.90125, 14.315, 0.0, 0.0, 0.0, -4.52375, 4.655, 13.29125
52.2491810322, -0.0, 0.0, 0.0, -6.335, 8.855, 18.5325, 0.0, 0.0, 0.0, -4.06875, 5.34625, 18.1475
52.2994360924, 0.0, 0.0, 0.0, -2.9925, 8.26875, 19.6175, 0.0, 0.0, 0.0, 1.65375, 4.41875, 16.24875
52.3497140408, 0.0, 0.0, 0.0, 0.09625, 6.85125, 17.5175, 0.0, 0.0, 0.0, 3.185, 1.58375, 11.34875
52.400302887, 0.0, -0.0, 0.0, 2.77375, 2.87875, 6.72875, 0.0, 0.0, 0.0, 6.43125, -0.09625, 3.78
52.4504919052, 0.0, -0.0, -0.0, 2.89625, -1.47875, -0.49, 0.0, 0.0, 0.0, 5.46875, -3.80625, -1.995
52.5006780624, 0.0, -0.0, -0.0, 2.905, -4.0075, -3.50875, 0.0, 0.0, 0.0, 5.69625, -5.74, -4.5325
52.5508561134, 0.0, -0.0, -0.0, 2.1175, -6.65875, -6.51, 0.0, 0.0, 0.0, 5.67, -8.28625, -7.77875
52.6010398865, 0.0, -0.0, -0.0, 0.77875, -7.21875, -8.2775, 0.0, 0.0, 0.0, 3.9725, -8.93375, -9.49375
52.6512920856, 0.0, -0.0, -0.0, 0.9275, -6.2825, -9.21375, 0.0, 0.0, 0.0, 3.10625, -8.25125, -8.4
52.701513052, -0.0, -0.0, -0.0, -5.99375, -6.44875, -6.46625, 0.0, 0.0, 0.0, -1.88125, -8.40875, -7.035
52.7516860962, 0.0, -0.0, -0.0, -2.00375, -6.30875, -8.855, 0.0, 0.0, 0.0, 1.0325, -7.69125, -10.0275
52.8019108772, 0.0, -0.0, -0.0, -4.59375, -5.64375, -12.495, 0.0, 0.0, 0.0, -0.4375, -6.51, -12.8975
52.8521649837, -0.0, -0.0, -0.0, -6.8425, -4.55875, -14.2275, 0.0, 0.0, 0.0, -1.8725, -5.53, -15.2075
52.9023470879, -0.0, -0.0, -0.0, -6.18625, -3.43, -15.04125, 0.0, 0.0, 0.0, -2.765, -3.955, -16.31875
52.9525499344, -0.0, -0.0, -0.0, -7.315, -3.675, -13.58, 0.0, 0.0, 0.0, -2.65125, -6.6675, -12.2675
53.0027060509, -0.0, -0.0, -0.0, -6.02875, -3.45625, -11.4975, 0.0, 0.0, 0.0, -3.29, -4.52375, -12.075
53.0528728962, -0.0, -0.0, -0.0, -5.39, -3.50875, -11.55875, 0.0, 0.0, 0.0, -2.24875, -4.55875, -12.13625
53.1030249596, -0.0, -0.0, -0.0, -4.9525, -3.185, -10.7625, 0.0, 0.0, 0.0, -1.00625, -4.5675, -12.90625
53.1532719135, -0.0, -0.0, -0.0, -4.64625, -3.115, -8.995, 0.0, 0.0, 0.0, -1.7675, -4.9, -9.30125
53.2035450935, 0.0, -0.0, -0.0, -3.6225, -4.12125, -5.39875, 0.0, 0.0, 0.0, -0.105, -6.13375, -6.9475
53.253786087, 0.0, -0.0, -0.0, -1.95125, -3.92, -4.33125, 0.0, 0.0, 0.0, 1.79375, -5.4075, -4.66375
53.3040299416, 0.0, -0.0, -0.0, -1.295, -2.8, -2.45875, 0.0, 0.0, 0.0, 2.89625, -4.8475, -3.99875
53.3546879292, 0.0, -0.0, -0.0, 0.7, -2.94875, -0.2625, 0.0, 0.0, 0.0, 5.10125, -4.36625, -2.695
53.4051120281, 0.0, -0.0, -0.0, 0.4725, -1.89, -1.8375, 0.0, 0.0, 0.0, 3.9025, -3.96375, -1.68
53.4552950859, 0.0, -0.0, -0.0, 2.26625, -0.62125, -1.8375, 0.0, 0.0, 0.0, 6.0025, -3.00125, -1.16375
53.5055150986, 0.0, -0.0, -0.0, 1.96875, -0.95375, -0.16625, 0.0, 0.0, 0.0, 6.37, -2.44125, -0.945
53.5557849407, 0.0, -0.0, 0.0, 3.42125, 0.00875, 1.35625, 0.0, 0.0, 0.0, 6.685, -2.135, 0.49875
53.606071949, 0.0, -0.0, 0.0, 3.14125, 0.23625, 1.2425, 0.0, 0.0, 0.0, 7.2625, -1.6275, -0.06125
53.6564509869, 0.0, -0.0, 0.0, 5.04875, 0.7875, 1.0325, 0.0, 0.0, 0.0, 8.72375, -1.21625, 0.07
53.7066791058, 0.0, -0.0, 0.0, 4.59375, 1.5925, 1.155, 0.0, 0.0, 0.0, 8.5225, -0.32375, -0.35875
53.7568969727, 0.0, -0.0, -0.0, 4.54125, 2.2575, 0.67375, 0.0, 0.0, 0.0, 7.27125, 0.35, -0.34125
53.8071820736, 0.0, -0.0, -0.0, 3.28125, 2.94875, 0.5075, 0.0, 0.0, 0.0, 8.09375, 1.155, 0.035
53.8573830128, 0.0, 0.0, 0.0, 0.8925, 4.865, 0.98, 0.0, 0.0, 0.0, 7.48125, 3.43, 3.5
53.9076769352, 0.0, 0.0, 0.0, 0.84, 7.2625, 13.09, 0.0, 0.0, 0.0, 4.7775, 5.18875, 8.0325
53.9579880238, 0.0, 0.0, 0.0, 0.74375, 9.8175, 19.2675, 0.0, 0.0, 0.0, 1.98625, 7.16625, 18.8825
54.0082280636, 0.0, 0.0, 0.0, 0.98, 12.52125, 23.49375, 0.0, 0.0, 0.0, 5.2325, 8.26875, 23.1525
54.0585179329, 0.0, 0.0, 0.0, 0.63875, 11.36625, 20.72875, 0.0, 0.0, 0.0, 3.59625, 8.0675, 19.6175
54.1088850498, 0.0, 0.0, 0.0, 1.6975, 10.85, 15.47875, 0.0, 0.0, 0.0, 4.15625, 7.83125, 14.105
54.1591620445, 0.0, 0.0, 0.0, 2.345, 9.80875, 6.83375, 0.0, 0.0, 0.0, 5.495, 6.88625, 5.48625
54.2093570232, 0.0, 0.0, 0.0, 4.375, 8.8025, 2.73875, 0.0, 0.0, 0.0, 5.4775, 6.41375, 0.6475
54.2595961094, 0.0, 0.0, -0.0, 1.30375, 6.22125, -1.89, 0.0, 0.0, 0.0, 5.34625, 4.22625, -2.0125
54.3098108768, 0.0, 0.0, -0.0, 0.06125, 5.74, -4.40125, 0.0, 0.0, 0.0, 4.445, 3.71875, -2.275
54.3600099087, 0.0, 0.0, -0.0, -2.52, 3.92875, -3.42125, 0.0, 0.0, 0.0, 0.70875, 2.205, -3.99875
54.4103910923, 0.0, 0.0, -0.0, -2.9575, 3.2375, -4.9875, 0.0, 0.0, 0.0, -1.19, 2.065, -5.915
54.4606781006, -0.0, -0.0, -0.0, -5.62625, 3.26375, -8.39125, 0.0, 0.0, 0.0, -2.5375, 1.6275, -8.5225
54.5108759403, -0.0, 0.0, -0.0, -8.54875, 3.3425, -11.445, 0.0, 0.0, 0.0, -5.3025, 2.1525, -11.20875
54.5611569881, -0.0, 0.0, -0.0, -10.185, 3.7275, -13.25625, 0.0, 0.0, 0.0, -6.265, 3.47375, -13.44875
54.6114029884, -0.0, 0.0, -0.0, -7.9975, 6.545, -10.15, 0.0, 0.0, 0.0, -7.70875, 6.46625, -12.7225
54.6616361141, -0.0, 0.0, -0.0, -15.21625, 7.42, -7.20125, 0.0, 0.0, 0.0, -9.07375, 7.35, -4.7775
54.7119460106, -0.0, 0.0, 0.0, -8.54875, 10.08, 2.00375, 0.0, 0.0, 0.0, -8.18125, 8.89875, 3.47375
54.7623419762, -0.0, 0.0, 0.0, -9.14375, 11.4275, 11.69, 0.0, 0.0, 0.0, -8.4875, 8.14625, 12.67875
54.8126308918, -0.0, 0.0, 0.0, -15.74125, 11.41, 11.31375, 0.0, 0.0, 0.0, -10.3775, 9.00375, 11.4275
54.862981081, -0.0, 0.0, 0.0, -12.425, 12.08375, 11.865, 0.0, 0.0, 0.0, -11.34, 8.26875, 9.21375
54.9131820202, -0.0, 0.0, 0.0, -13.15125, 13.1425, 8.89875, 0.0, 0.0, 0.0, -10.05375, 9.03875, 10.29
54.9634389877, -0.0, 0.0, 0.0, -13.02875, 10.43, 9.37125, 0.0, 0.0, 0.0, -10.66625, 8.0675, 7.735
55.013712883, -0.0, 0.0, 0.0, -11.2, 9.21375, 5.80125, 0.0, 0.0, 0.0, -8.21625, 7.07, 5.80125
55.064013958, -0.0, 0.0, 0.0, -8.33875, 8.75875, 5.53, 0.0, 0.0, 0.0, -4.59375, 6.37875, 5.18875
55.114192009, -0.0, 0.0, 0.0, -7.25375, 7.6825, 4.9525, 0.0, 0.0, 0.0, -7.02625, 5.83625, 5.11
55.1645169258, -0.0, 0.0, 0.0, -7.46375, 9.86125, 10.2725, 0.0, 0.0, 0.0, -4.12125, 5.53875, 8.46125
55.2147018909, -0.0, 0.0, 0.0, -6.72875, 10.85, 17.4125, 0.0, 0.0, 0.0, -4.515, 7.805, 16.52
55.264952898, 0.0, 0.0, 0.0, -1.785, 12.0925, 21.1225, 0.0, 0.0, 0.0, 2.52875, 7.07, 20.58875
55.3153688908, 0.0, 0.0, 0.0, -0.8925, 9.38, 17.28125, 0.0, 0.0, 0.0, 0.0875, 6.01125, 18.41875
55.3655900955, 0.0, 0.0, 0.0, 5.425, 7.65625, 10.5, 0.0, 0.0, 0.0, 6.34375, 4.40125, 8.72375
55.4157919884, 0.0, 0.0, 0.0, 0.55125, 6.3875, 4.5675, 0.0, 0.0, 0.0, 2.73, 4.10375, 2.4325
55.4660170078, 0.0, 0.0, -0.0, 1.1725, 3.395, -4.7075, 0.0, 0.0, 0.0, 4.75125, 1.19875, -4.94375
55.5163168907, 0.0, -0.0, -0.0, 2.14375, 0.7875, -7.18375, 0.0, 0.0, 0.0, 5.06625, -0.53375, -8.4525
55.5665569305, 0.0, -0.0, -0.0, 0.875, 0.60375, -8.68875, 0.0, 0.0, 0.0, 3.395, -0.9625, -9.12625
55.6168549061, 0.0, -0.0, -0.0, -0.27125, 0.53375, -9.345, 0.0, 0.0, 0.0, 1.42625, -0.67375, -9.5025
55.6672520638, 0.0, -0.0, -0.0, -3.1675, 1.3125, -4.62875, 0.0, 0.0, 0.0, 0.8575, 1.18125, -6.9825
55.7176160812, 0.0, -0.0, -0.0, -4.55875, 0.27125, -8.9775, 0.0, 0.0, 0.0, -1.67125, -0.665, -10.1675
55.7679450512, 0.0, -0.0, -0.0, -3.70125, 0.25375, -12.145, 0.0, 0.0, 0.0, -1.435, -0.25375, -14.18375
55.8183200359, -0.0, -0.0, -0.0, -5.355, 0.0175, -13.8425, 0.0, 0.0, 0.0, -1.95125, -0.62125, -14.3325
55.8685290813, -0.0, -0.0, -0.0, -6.02875, -0.2625, -15.5925, 0.0, 0.0, 0.0, -1.47, -0.84875, -14.83125
55.9188089371, -0.0, -0.0, -0.0, -5.9325, 0.315, -13.86875, 0.0, 0.0, 0.0, -2.3625, -0.49, -14.5775
55.9690608978, -0.0, -0.0, -0.0, -5.8625, 0.56, -12.39, 0.0, 0.0, 0.0, -1.1375, -0.04375, -11.82125
56.0193490982, -0.0, -0.0, -0.0, -5.25, 0.7, -9.38, 0.0, 0.0, 0.0, -1.2075, -0.42875, -10.61375
56.0696160793, -0.0, -0.0, -0.0, -5.85375, -0.14875, -8.96, 0.0, 0.0, 0.0, -1.9075, -1.30375, -9.2925
56.1198630333, 0.0, -0.0, -0.0, -4.025, -1.30375, -7.62125, 0.0, 0.0, 0.0, -1.645, -1.84625, -8.86375
56.1701231003, 0.0, -0.0, -0.0, -6.44875, -1.5925, -4.54125, 0.0, 0.0, 0.0, 1.9075, -2.49375, -5.285
56.2203979492, 0.0, -0.0, -0.0, -2.14375, -1.21625, -2.51125, 0.0, 0.0, 0.0, 0.2975, -2.66, -3.1325
56.2706449032, 0.0, -0.0, -0.0, -2.1, -0.98, -0.93625, 0.0, 0.0, 0.0, 1.47875, -2.94875, -1.75
56.3208360672, 0.0, -0.0, -0.0, -1.21625, -0.9275, -0.42, 0.0, 0.0, 0.0, 2.19625, -2.44125, -1.0325
56.3710720539, 0.0, -0.0, 0.0, 2.6075, 0.21, 5.88, 0.0, 0.0, 0.0, 1.9425, -2.10875, 1.04125
56.4213490486, 0.0, -0.0, 0.0, -3.63125, 0.34125, 6.6325, 0.0, 0.0, 0.0, -2.7825, -0.5775, 7.1575
56.4715509415, -0.0, -0.0, 0.0, -18.7075, 3.0975, 18.8475, 0.0, 0.0, 0.0, -15.79375, -0.41125, 19.74
56.5217928886, -0.0, -0.0, 0.0, -17.8325, 3.3425, 22.75875, 0.0, 0.0, 0.0, -14.90125, 0.44625, 22.6275
56.5719931126, -0.0, 0.0, 0.0, -19.59125, 3.8675, 18.1125, 0.0, 0.0, 0.0, -10.4475, 0.11375, 20.32625
56.6222319603, -0.0, -0.0, 0.0, -7.95375, 2.65125, 13.125, 0.0, 0.0, 0.0, -6.57125, -0.3325, 10.9375
56.6724720001, -0.0, -0.0, 0.0, -1.77625, 1.855, 9.4675, 0.0, 0.0, 0.0, 0.5775, -0.53375, 7.86625
56.7228341103, 0.0, -0.0, 0.0, 2.8525, 2.30125, 6.895, 0.0, 0.0, 0.0, 7.4025, -0.56, 6.3525
56.773127079, 0.0, -0.0, 0.0, 4.655, 2.17, 7.14875, 0.0, 0.0, 0.0, 8.435, -0.39375, 6.25625
56.8233730793, 0.0, -0.0, 0.0, 5.88875, 1.8025, 5.5825, 0.0, 0.0, 0.0, 9.86125, -0.6125, 6.4575
56.8736519814, 0.0, -0.0, 0.0, 3.54375, 1.37375, 6.4225, 0.0, 0.0, 0.0, 7.37625, -0.90125, 5.67875
56.9239749908, 0.0, -0.0, 0.0, 5.705, 1.575, 5.95, 0.0, 0.0, 0.0, 8.5225, -1.085, 5.0225
56.9743900299, 0.0, -0.0, 0.0, 2.485, 1.05, 4.34, 0.0, 0.0, 0.0, 6.2825, -1.65375, 3.3425
57.0247559547, 0.0, -0.0, 0.0, 2.33625, 0.81375, 2.94875, 0.0, 0.0, 0.0, 5.24125, -1.05, 1.8725
57.0751481056, 0.0, -0.0, 0.0, 0.9625, 0.91875, 0.63, 0.0, 0.0, 0.0, 5.705, -0.79625, 1.365
57.1259579659, 0.0, -0.0, -0.0, 0.28, 2.38, 0.7175, 0.0, 0.0, 0.0, 4.22625, 0.4025, 0.46375
57.1762669086, 0.0, -0.0, 0.0, 0.62125, 3.05375, 0.8925, 0.0, 0.0, 0.0, 3.36875, 1.015, -0.04375
57.2266130447, 0.0, -0.0, 0.0, -1.16375, 3.17625, 0.79625, 0.0, 0.0, 0.0, 2.96625, 1.19, -0.2625
57.2769649029, 0.0, -0.0, -0.0, -1.75, 3.255, -0.105, 0.0, 0.0, 0.0, 1.1725, 1.47, -0.91875
57.3273420334, 0.0, 0.0, -0.0, -2.19625, 3.71, -0.2975, 0.0, 0.0, 0.0, 1.46125, 2.00375, -0.0875
57.3775730133, 0.0, 0.0, -0.0, -2.1525, 4.4625, 0.13125, 0.0, 0.0, 0.0, 0.6825, 2.58125, -0.53375
57.4278459549, 0.0, 0.0, -0.0, -2.1875, 4.38375, 0.2275, 0.0, 0.0, 0.0, 0.77, 3.0975, 0.00875
57.4782140255, 0.0, 0.0, -0.0, -2.40625, 5.2325, 0.4375, 0.0, 0.0, 0.0, 1.61875, 3.15, -0.1575
57.5285289288, 0.0, 0.0, -0.0, -2.82625, 4.96125, 0.18375, 0.0, 0.0, 0.0, 0.98875, 3.465, -0.25375
57.578742981, 0.0, 0.0, -0.0, -2.93125, 6.0025, 0.0, 0.0, 0.0, 0.0, 1.54875, 3.885, 0.46375
57.6290130615, 0.0, 0.0, 0.0, -3.255, 6.545, 0.46375, 0.0, 0.0, 0.0, 0.83125, 4.5675, 0.67375
57.6794440746, 0.0, 0.0, 0.0, -3.3775, 7.0175, 0.77875, 0.0, 0.0, 0.0, 0.02625, 5.0225, 0.595
57.7296481133, -0.0, 0.0, -0.0, -4.725, 6.41375, -0.455, 0.0, 0.0, 0.0, -1.14625, 5.1975, 0.13125
57.7798259258, -0.0, 0.0, -0.0, -5.3025, 6.69375, -1.225, 0.0, 0.0, 0.0, -1.89, 5.34625, -0.46375
57.8301050663, 0.0, 0.0, -0.0, -4.55875, 7.3675, -0.3325, 0.0, 0.0, 0.0, -1.3825, 5.635, 0.09625
57.8804430962, -0.0, 0.0, -0.0, -5.9675, 7.105, -0.0875, 0.0, 0.0, 0.0, -1.33875, 5.425, 0.11375
57.9307870865, -0.0, 0.0, 0.0, -5.01375, 7.51625, 1.05, 0.0, 0.0, 0.0, -1.365, 4.83875, 0.56875
57.9810769558, -0.0, 0.0, 0.0, -4.865, 6.825, 0.7175, 0.0, 0.0, 0.0, -1.35625, 5.36375, 1.5575
58.031373024, -0.0, 0.0, 0.0, -5.3725, 6.9475, 0.5425, 0.0, 0.0, 0.0, -1.61, 5.50375, 0.8225
58.0817320347, -0.0, 0.0, -0.0, -6.09875, 7.49, 0.35, 0.0, 0.0, 0.0, -2.63375, 5.73125, -0.8575
58.1320750713, -0.0, 0.0, -0.0, -7.175, 7.46375, -0.7175, 0.0, 0.0, 0.0, -2.96625, 5.705, -0.84
58.1823740005, -0.0, 0.0, -0.0, -7.18375, 7.63875, 0.55125, 0.0, 0.0, 0.0, -3.57, 6.16, -0.07
58.2327170372, -0.0, 0.0, -0.0, -7.175, 8.5575, 0.245, 0.0, 0.0, 0.0, -4.165, 6.41375, 0.0525
58.2830541134, -0.0, 0.0, 0.0, -7.11375, 8.93375, 1.225, 0.0, 0.0, 0.0, -3.28125, 8.14625, 0.5425
58.3333730698, -0.0, 0.0, 0.0, -6.58, 9.6425, 1.47, 0.0, 0.0, 0.0, -2.14375, 8.8725, 1.89
58.3835999966, -0.0, 0.0, 0.0, -6.72, 10.54375, 2.00375, 0.0, 0.0, 0.0, -2.86125, 8.54875, 1.7325
58.4339330196, -0.0, 0.0, 0.0, -5.20625, 10.29875, 2.37125, 0.0, 0.0, 0.0, -1.925, 8.365, 1.79375
58.4842369556, -0.0, 0.0, 0.0, -5.5475, 10.0625, 2.8175, 0.0, 0.0, 0.0, -2.79125, 7.42, 1.86375
58.5345299244, -0.0, 0.0, 0.0, -5.74875, 9.35375, 3.29, 0.0, 0.0, 0.0, -2.2925, 6.79, 2.35375
58.5847768784, -0.0, 0.0, 0.0, -6.50125, 8.32125, 3.6225, 0.0, 0.0, 0.0, -1.77625, 6.16875, 2.9925
58.6350829601, -0.0, 0.0, 0.0, -6.65, 7.84875, 3.22, 0.0, 0.0, 0.0, -3.0975, 5.565, 3.8325
58.6854391098, -0.0, 0.0, 0.0, -5.50375, 7.18375, 2.61625, 0.0, 0.0, 0.0, -1.88125, 5.66125, 2.77375
58.735708952, -0.0, 0.0, 0.0, -5.50375, 6.4925, 1.88125, 0.0, 0.0, 0.0, -2.40625, 5.15375, 1.61
58.7859659195, -0.0, 0.0, 0.0, -4.83875, 7.1925, 1.91625, 0.0, 0.0, 0.0, -0.8225, 5.04875, 2.12625
58.8362140656, 0.0, 0.0, 0.0, -4.40125, 7.0, 1.75, 0.0, 0.0, 0.0, -0.7, 4.96125, 0.9625
58.8864159584, 0.0, 0.0, 0.0, -3.33375, 6.4925, 1.2425, 0.0, 0.0, 0.0, -0.06125, 4.5675, 1.56625
58.9366130829, 0.0, 0.0, 0.0, -1.4875, 6.15125, 1.89875, 0.0, 0.0, 0.0, 1.33, 4.41, 1.39125
58.9869019985, 0.0, 0.0, 0.0, -1.75875, 6.23875, 2.2225, 0.0, 0.0, 0.0, 1.68, 4.36625, 2.0125
59.037266016, 0.0, 0.0, 0.0, -0.7, 6.02875, 3.255, 0.0, 0.0, 0.0, 1.54, 3.56125, 2.07375
59.0876300335, 0.0, 0.0, 0.0, -2.065, 4.9525, 4.095, 0.0, 0.0, 0.0, 1.6975, 2.86125, 2.5725
59.1378970146, 0.0, 0.0, 0.0, -0.5775, 4.7075, 3.1675, 0.0, 0.0, 0.0, 2.70375, 2.52875, 3.21125
59.1880939007, 0.0, -0.0, 0.0, -1.30375, 3.3775, 3.15, 0.0, 0.0, 0.0, 2.10875, 1.37375, 3.4475
59.2383821011, 0.0, 0.0, 0.0, -0.02625, 3.6225, 3.63125, 0.0, 0.0, 0.0, 1.54875, 0.875, 3.9375
59.2888159752, 0.0, -0.0, 0.0, -1.5925, 2.3975, 4.305, 0.0, 0.0, 0.0, 0.06125, 0.28, 3.9725
59.3392291069, 0.0, -0.0, 0.0, -2.87, 2.205, 4.6025, 0.0, 0.0, 0.0, 0.875, 0.41125, 3.6575
59.3894500732, 0.0, -0.0, 0.0, -2.03875, 1.9775, 3.89375, 0.0, 0.0, 0.0, 1.61875, -0.1225, 4.06875
59.4396910667, 0.0, -0.0, 0.0, -1.93375, 2.21375, 4.585, 0.0, 0.0, 0.0, 2.2575, -0.315, 3.815
59.4899818897, 0.0, -0.0, 0.0, -0.37625, 2.065, 5.46, 0.0, 0.0, 0.0, 2.16125, -0.42, 4.865
59.5402500629, 0.0, -0.0, 0.0, -1.00625, 2.2225, 5.8975, 0.0, 0.0, 0.0, 2.6775, 0.315, 5.7575
59.5905508995, 0.0, -0.0, 0.0, -0.035, 2.59, 7.02625, 0.0, 0.0, 0.0, 3.70125, 0.035, 6.34375
59.6408860683, 0.0, -0.0, 0.0, -0.11375, 2.56375, 6.95625, 0.0, 0.0, 0.0, 2.9925, 0.49, 6.81625
59.6910820007, 0.0, -0.0, 0.0, -0.315, 2.6075, 7.21875, 0.0, 0.0, 0.0, 3.26375, 0.2625, 6.5275
59.7413909435, 0.0, -0.0, 0.0, -0.25375, 3.29875, 7.30625, 0.0, 0.0, 0.0, 3.2025, 0.63, 7.23625
59.7917098999, 0.0, -0.0, 0.0, -0.21, 2.905, 6.9475, 0.0, 0.0, 0.0, 3.36, 0.5775, 6.6675
59.8420679569, 0.0, -0.0, 0.0, -0.6825, 2.79125, 7.49, 0.0, 0.0, 0.0, 3.2375, 0.35875, 6.62375
59.8922829628, 0.0, -0.0, 0.0, 0.06125, 2.31, 6.965, 0.0, 0.0, 0.0, 3.14125, -0.175, 6.4925
59.9425580502, 0.0, -0.0, 0.0, 0.5075, 1.46125, 5.29375, 0.0, 0.0, 0.0, 2.77375, -0.385, 3.395
59.9928269386, 0.0, -0.0, 0.0, -1.995, 1.86375, 2.63375, 0.0, 0.0, 0.0, 1.91625, -0.4025, 2.00375
60.0434679985, 0.0, -0.0, 0.0, -2.1175, 1.785, 3.3075, 0.0, 0.0, 0.0, 1.7325, -0.2975, 1.8375
60.0937349796, 0.0, -0.0, 0.0, -2.75625, 1.925, 1.00625, 0.0, 0.0, 0.0, 0.18375, -0.14, 1.1025
60.1439979076, -0.0, -0.0, 0.0, -5.57375, 2.1175, 1.6975, 0.0, 0.0, 0.0, -1.645, 0.20125, -1.2425
60.1943109035, 0.0, -0.0, 0.0, -3.6225, 3.14125, 6.13375, 0.0, 0.0, 0.0, -1.09375, 1.35625, 4.7425
60.2445709705, 0.0, -0.0, 0.0, -3.3075, 2.275, 2.35375, 0.0, 0.0, 0.0, 0.6125, 0.0, 2.73875
60.2948679924, -0.0, -0.0, 0.0, -6.58875, 1.84625, 1.4525, 0.0, 0.0, 0.0, -3.3425, 0.56875, 0.5425
60.3451249599, -0.0, -0.0, -0.0, -5.4775, 2.37125, 0.07, 0.0, 0.0, 0.0, -1.61, 0.74375, -1.49625
60.3953499794, -0.0, -0.0, -0.0, -6.475, 1.9775, -0.98875, 0.0, 0.0, 0.0, -3.15875, 0.805, -0.93625
60.4455850124, -0.0, -0.0, -0.0, -8.3475, 2.275, -2.1525, 0.0, 0.0, 0.0, -2.8525, 1.0325, -2.54625
60.4957950115, -0.0, -0.0, -0.0, -6.13375, 2.96625, -3.19375, 0.0, 0.0, 0.0, -3.07125, 1.4, -2.72125
60.5460159779, -0.0, -0.0, -0.0, -7.37625, 2.24875, -3.9375, 0.0, 0.0, 0.0, -4.095, 1.11125, -3.85
60.5962018967, -0.0, -0.0, -0.0, -6.44, 2.21375, -4.99625, 0.0, 0.0, 0.0, -2.91375, 1.28625, -5.8275
60.6464018822, -0.0, -0.0, -0.0, -7.105, 1.68875, -6.4225, 0.0, 0.0, 0.0, -3.325, 0.60375, -5.8275
60.6966950893, -0.0, -0.0, -0.0, -4.92625, 1.2775, -5.94125, 0.0, 0.0, 0.0, -1.40875, -0.21875, -5.95
60.7469830513, -0.0, -0.0, -0.0, -5.01375, 0.98, -4.97875, 0.0, 0.0, 0.0, -1.14625, -0.385, -6.545
60.7972409725, 0.0, -0.0, -0.0, -3.92875, 0.62125, -4.97875, 0.0, 0.0, 0.0, -0.4725, -0.20125, -6.13375
60.8474559784, 0.0, -0.0, -0.0, -3.3075, 1.98625, -4.52375, 0.0, 0.0, 0.0, 0.30625, 0.39375, -4.3925
60.8977360725, 0.0, -0.0, -0.0, -3.35125, 2.2575, -3.43, 0.0, 0.0, 0.0, 1.12875, 0.55125, -4.08625
60.9480888844, 0.0, -0.0, -0.0, -3.2375, 2.4325, -3.45625, 0.0, 0.0, 0.0, 1.575, 1.12, -2.93125
60.9983520508, 0.0, -0.0, -0.0, -1.88125, 3.03625, -1.42625, 0.0, 0.0, 0.0, 1.93375, 1.12875, -1.82875
61.0485789776, 0.0, -0.0, -0.0, -1.70625, 2.40625, -0.1225, 0.0, 0.0, 0.0, 1.95125, 0.74375, -0.63
61.0989289284, 0.0, -0.0, -0.0, -0.2625, 3.1675, 0.525, 0.0, 0.0, 0.0, 1.1375, 0.595, -0.2275
61.1491930485, 0.0, -0.0, 0.0, -1.435, 2.72125, 2.0825, 0.0, 0.0, 0.0, 2.2925, 0.77, 1.75875
61.1994950771, 0.0, -0.0, 0.0, -0.20125, 2.9925, 3.1675, 0.0, 0.0, 0.0, 2.61625, 0.595, 2.45875
61.2497460842, 0.0, -0.0, 0.0, -1.0675, 2.8175, 3.5, 0.0, 0.0, 0.0, 2.23125, 0.8925, 3.61375
61.300082922, 0.0, -0.0, 0.0, -0.2625, 2.835, 4.13875, 0.0, 0.0, 0.0, 2.52, 0.67375, 4.08625
61.3503580093, 0.0, -0.0, 0.0, -0.7, 3.03625, 4.90875, 0.0, 0.0, 0.0, 2.59, 0.69125, 4.9175
61.4005980492, 0.0, -0.0, 0.0, -1.49625, 2.5025, 5.78375, 0.0, 0.0, 0.0, 1.1725, 0.385, 5.88875
61.4507520199, 0.0, -0.0, 0.0, -0.56875, 2.94875, 6.3875, 0.0, 0.0, 0.0, 2.38, 1.00625, 6.04625
61.5010459423, 0.0, 0.0, 0.0, -1.1025, 3.9725, 7.8575, 0.0, 0.0, 0.0, 2.03, 1.65375, 6.37875
61.5512900352, 0.0, 0.0, 0.0, -0.6475, 4.2175, 7.2625, 0.0, 0.0, 0.0, 2.21375, 1.995, 7.4725
61.6015250683, 0.0, 0.0, 0.0, -1.00625, 4.2525, 8.1725, 0.0, 0.0, 0.0, 2.23125, 1.26875, 6.79
61.651804924, 0.0, 0.0, 0.0, -1.07625, 4.34875, 6.86, 0.0, 0.0, 0.0, 1.88125, 1.54, 6.3175
61.702051878, 0.0, 0.0, 0.0, -1.05, 4.375, 5.46, 0.0, 0.0, 0.0, 1.6625, 1.8025, 4.99625
61.7522890568, 0.0, 0.0, 0.0, -3.465, 3.57875, 5.355, 0.0, 0.0, 0.0, 0.91875, 1.855, 4.795
61.8024790287, 0.0, 0.0, 0.0, -2.2225, 3.84125, 4.235, 0.0, 0.0, 0.0, 0.62125, 1.51375, 3.535
61.8526649475, 0.0, -0.0, 0.0, -3.885, 2.96625, 3.675, 0.0, 0.0, 0.0, 0.63875, 0.77, 3.28125
61.9029409885, 0.0, -0.0, 0.0, -3.22, 3.2725, 4.06, 0.0, 0.0, 0.0, -0.63875, 0.86625, 3.395
61.9532399178, 0.0, -0.0, 0.0, -3.75375, 3.045, 1.75, 0.0, 0.0, 0.0, -0.37625, 0.91, 1.67125
62.0035130978, 0.0, -0.0, -0.0, -3.63125, 2.30125, 0.3325, 0.0, 0.0, 0.0, -0.70875, 0.7175, 0.14
62.053814888, 0.0, -0.0, -0.0, -4.3225, 2.58125, -0.3325, 0.0, 0.0, 0.0, -1.37375, 0.8925, -1.65375
